Frequency (Hz)	Level (dB)
46.875000	-20.641851
93.750000	-25.957401
140.625000	-32.962563
187.500000	-37.237808
234.375000	-38.406128
281.250000	-41.549999
328.125000	-44.201897
375.000000	-46.302765
421.875000	-48.883152
468.750000	-51.186737
515.625000	-52.689186
562.500000	-53.083164
609.375000	-53.456882
656.250000	-54.123486
703.125000	-56.254887
750.000000	-58.035564
796.875000	-58.765163
843.750000	-59.729027
890.625000	-62.336327
937.500000	-63.100376
984.375000	-63.699883
1031.250000	-63.654076
1078.125000	-64.223488
1125.000000	-65.941422
1171.875000	-67.471725
1218.750000	-67.715813
1265.625000	-68.437874
1312.500000	-68.929588
1359.375000	-69.242554
1406.250000	-69.745880
1453.125000	-70.449615
1500.000000	-70.587654
1546.875000	-71.193398
1593.750000	-71.810074
1640.625000	-72.270905
1687.500000	-72.331612
1734.375000	-72.788757
1781.250000	-72.726570
1828.125000	-72.254066
1875.000000	-72.803711
1921.875000	-73.619598
1968.750000	-74.383759
2015.625000	-74.224930
2062.500000	-74.232346
2109.375000	-74.619164
2156.250000	-75.375328
2203.125000	-75.600189
2250.000000	-75.375519
2296.875000	-75.389168
2343.750000	-75.476326
2390.625000	-75.809067
2437.500000	-75.514313
2484.375000	-75.263145
2531.250000	-75.496597
2578.125000	-75.719315
2625.000000	-75.706749
2671.875000	-76.192574
2718.750000	-76.334259
2765.625000	-76.567581
2812.500000	-76.481255
2859.375000	-76.986404
2906.250000	-76.704002
2953.125000	-76.514824
3000.000000	-76.974831
3046.875000	-77.023956
3093.750000	-76.725822
3140.625000	-76.823967
3187.500000	-77.122475
3234.375000	-77.009842
3281.250000	-77.058075
3328.125000	-77.604774
3375.000000	-77.318817
3421.875000	-77.612999
3468.750000	-77.695801
3515.625000	-77.571136
3562.500000	-77.814209
3609.375000	-77.516182
3656.250000	-78.398293
3703.125000	-78.310257
3750.000000	-78.037819
3796.875000	-77.932281
3843.750000	-78.100739
3890.625000	-77.922966
3937.500000	-77.879097
3984.375000	-78.105087
4031.250000	-78.299149
4078.125000	-78.812347
4125.000000	-78.957130
4171.875000	-78.637497
4218.750000	-78.745941
4265.625000	-78.578171
4312.500000	-78.600449
4359.375000	-78.548111
4406.250000	-78.383781
4453.125000	-78.479141
4500.000000	-78.796890
4546.875000	-79.194145
4593.750000	-79.430367
4640.625000	-79.183342
4687.500000	-79.591537
4734.375000	-79.283615
4781.250000	-79.329391
4828.125000	-79.788666
4875.000000	-79.393867
4921.875000	-79.030525
4968.750000	-79.416725
5015.625000	-79.598038
5062.500000	-79.779770
5109.375000	-79.975273
5156.250000	-79.937325
5203.125000	-79.492226
5250.000000	-79.692963
5296.875000	-79.931946
5343.750000	-79.518951
5390.625000	-79.897743
5437.500000	-80.493698
5484.375000	-80.228119
5531.250000	-80.083626
5578.125000	-80.168007
5625.000000	-80.454460
5671.875000	-80.380440
5718.750000	-80.612137
5765.625000	-80.756020
5812.500000	-81.189583
5859.375000	-81.060585
5906.250000	-80.809784
5953.125000	-81.511612
6000.000000	-81.494720
6046.875000	-81.498520
6093.750000	-81.537689
6140.625000	-81.550743
6187.500000	-81.497490
6234.375000	-81.672905
6281.250000	-81.928848
6328.125000	-81.787491
6375.000000	-81.609497
6421.875000	-81.999504
6468.750000	-81.966629
6515.625000	-82.302277
6562.500000	-82.170914
6609.375000	-82.091042
6656.250000	-82.359482
6703.125000	-82.600449
6750.000000	-82.408783
6796.875000	-82.799232
6843.750000	-83.025131
6890.625000	-82.805573
6937.500000	-82.646324
6984.375000	-83.107475
7031.250000	-83.669304
7078.125000	-83.686035
7125.000000	-83.406769
7171.875000	-83.581825
7218.750000	-84.071686
7265.625000	-83.995506
7312.500000	-83.997253
7359.375000	-83.902802
7406.250000	-83.998871
7453.125000	-83.836891
7500.000000	-83.564331
7546.875000	-83.864532
7593.750000	-84.310989
7640.625000	-83.953453
7687.500000	-84.220161
7734.375000	-84.403755
7781.250000	-84.340660
7828.125000	-84.568977
7875.000000	-85.173714
7921.875000	-85.513718
7968.750000	-85.990044
8015.625000	-85.565559
8062.500000	-84.890564
8109.375000	-85.021011
8156.250000	-85.579498
8203.125000	-85.159264
8250.000000	-85.214767
8296.875000	-85.581467
8343.750000	-85.598145
8390.625000	-84.873398
8437.500000	-85.321068
8484.375000	-85.718895
8531.250000	-85.526390
8578.125000	-85.569313
8625.000000	-85.660233
8671.875000	-85.578232
8718.750000	-85.413879
8765.625000	-85.990974
8812.500000	-86.038368
8859.375000	-85.765869
8906.250000	-86.095612
8953.125000	-85.694504
9000.000000	-86.634995
9046.875000	-86.979271
9093.750000	-86.271492
9140.625000	-86.620178
9187.500000	-86.911865
9234.375000	-86.783981
9281.250000	-86.810333
9328.125000	-86.945885
9375.000000	-87.445267
9421.875000	-87.494057
9468.750000	-86.651428
9515.625000	-86.339851
9562.500000	-86.891724
9609.375000	-86.665329
9656.250000	-86.470520
9703.125000	-87.258827
9750.000000	-87.194084
9796.875000	-86.697220
9843.750000	-87.251053
9890.625000	-87.373978
9937.500000	-87.331009
9984.375000	-87.828003
10031.250000	-88.192146
10078.125000	-87.987289
10125.000000	-87.862938
10171.875000	-87.831146
10218.750000	-88.034409
10265.625000	-88.367264
10312.500000	-88.593872
10359.375000	-88.324829
10406.250000	-88.422188
10453.125000	-89.002228
10500.000000	-88.946877
10546.875000	-89.208946
10593.750000	-88.605125
10640.625000	-88.655327
10687.500000	-89.461281
10734.375000	-89.473000
10781.250000	-89.386421
10828.125000	-89.956314
10875.000000	-89.886887
10921.875000	-89.385239
10968.750000	-89.800919
11015.625000	-89.494598
11062.500000	-89.590324
11109.375000	-90.116333
11156.250000	-90.502007
11203.125000	-90.622368
11250.000000	-90.984573
11296.875000	-91.386246
11343.750000	-91.055710
11390.625000	-90.915176
11437.500000	-91.396294
11484.375000	-91.603729
11531.250000	-91.685577
11578.125000	-91.119408
11625.000000	-91.083778
11671.875000	-92.199089
11718.750000	-91.931572
11765.625000	-92.005966
11812.500000	-92.037003
11859.375000	-91.548866
11906.250000	-91.953415
11953.125000	-92.438217
12000.000000	-92.859657
12046.875000	-93.198997
12093.750000	-92.948944
12140.625000	-93.095055
12187.500000	-92.904335
12234.375000	-93.415932
12281.250000	-93.621742
12328.125000	-94.283340
12375.000000	-93.918129
12421.875000	-93.700127
12468.750000	-93.908867
12515.625000	-93.853638
12562.500000	-93.971870
12609.375000	-94.528511
12656.250000	-94.239563
12703.125000	-94.053162
12750.000000	-94.417130
12796.875000	-95.133278
12843.750000	-95.037910
12890.625000	-94.828804
12937.500000	-94.617638
12984.375000	-94.719055
13031.250000	-94.928604
13078.125000	-95.864792
13125.000000	-95.812256
13171.875000	-95.947716
13218.750000	-96.594330
13265.625000	-96.446625
13312.500000	-96.055206
13359.375000	-95.555656
13406.250000	-95.600456
13453.125000	-96.085556
13500.000000	-96.431152
13546.875000	-96.852806
13593.750000	-97.224442
13640.625000	-97.422470
13687.500000	-97.869728
13734.375000	-96.797897
13781.250000	-97.159637
13828.125000	-98.165436
13875.000000	-98.383774
13921.875000	-98.202538
13968.750000	-98.117661
14015.625000	-97.691299
14062.500000	-98.239998
14109.375000	-98.592178
14156.250000	-98.417923
14203.125000	-98.680771
14250.000000	-99.153656
14296.875000	-99.642181
14343.750000	-99.480484
14390.625000	-99.296440
14437.500000	-99.938065
14484.375000	-100.148422
14531.250000	-99.635956
14578.125000	-100.422112
14625.000000	-100.236237
14671.875000	-100.099724
14718.750000	-100.220917
14765.625000	-100.543564
14812.500000	-100.842918
14859.375000	-100.489784
14906.250000	-100.501709
14953.125000	-100.844955
15000.000000	-101.034889
15046.875000	-100.859085
15093.750000	-100.634758
15140.625000	-100.626373
15187.500000	-101.024971
15234.375000	-101.412033
15281.250000	-102.189163
15328.125000	-101.957695
15375.000000	-101.398621
15421.875000	-101.585320
15468.750000	-102.562172
15515.625000	-102.575279
15562.500000	-102.093719
15609.375000	-101.706985
15656.250000	-101.842896
15703.125000	-101.569542
15750.000000	-102.047264
15796.875000	-102.136253
15843.750000	-102.164764
15890.625000	-102.577423
15937.500000	-103.108391
15984.375000	-104.389122
16031.250000	-107.210617
16078.125000	-108.280830
16125.000000	-108.796844
16171.875000	-107.935715
16218.750000	-107.584389
16265.625000	-107.611176
16312.500000	-107.185402
16359.375000	-108.805054
16406.250000	-109.324417
16453.125000	-108.663582
16500.000000	-109.134956
16546.875000	-108.113586
16593.750000	-108.234306
16640.625000	-108.768784
16687.500000	-109.105080
16734.375000	-109.138840
16781.250000	-110.290474
16828.125000	-111.460846
16875.000000	-111.715096
16921.875000	-109.828918
16968.750000	-109.803993
17015.625000	-110.495438
17062.500000	-109.495834
17109.375000	-109.148331
17156.250000	-110.909058
17203.125000	-110.996445
17250.000000	-111.841805
17296.875000	-112.848351
17343.750000	-111.176010
17390.625000	-109.182907
17437.500000	-110.190186
17484.375000	-112.641090
17531.250000	-113.843994
17578.125000	-112.151344
17625.000000	-110.331100
17671.875000	-109.086922
17718.750000	-111.445976
17765.625000	-113.438736
17812.500000	-111.082840
17859.375000	-109.738564
17906.250000	-112.603119
17953.125000	-109.271767
18000.000000	-108.732376
18046.875000	-110.094505
18093.750000	-113.258698
18140.625000	-111.536453
18187.500000	-109.995171
18234.375000	-112.787605
18281.250000	-113.619995
18328.125000	-112.594322
18375.000000	-112.474091
18421.875000	-113.104721
18468.750000	-114.427109
18515.625000	-114.614159
18562.500000	-115.482643
18609.375000	-115.624985
18656.250000	-117.112007
18703.125000	-116.820015
18750.000000	-116.059959
18796.875000	-116.366516
18843.750000	-114.428993
18890.625000	-114.320549
18937.500000	-114.598969
18984.375000	-115.933006
19031.250000	-117.149353
19078.125000	-117.154488
19125.000000	-115.716919
19171.875000	-115.850449
19218.750000	-120.148964
19265.625000	-122.243683
19312.500000	-122.193642
19359.375000	-120.561646
19406.250000	-122.071480
19453.125000	-120.549164
19500.000000	-121.824371
19546.875000	-127.620148
19593.750000	-134.251083
19640.625000	-136.928482
19687.500000	-139.993179
19734.375000	-142.007309
19781.250000	-140.703064
19828.125000	-142.578262
19875.000000	-144.175369
19921.875000	-140.319733
19968.750000	-136.061691
20015.625000	-134.223892
20062.500000	-133.603607
20109.375000	-133.232407
20156.250000	-131.908264
20203.125000	-130.201706
20250.000000	-129.466599
20296.875000	-130.275238
20343.750000	-132.270981
20390.625000	-135.177200
20437.500000	-138.127487
20484.375000	-142.829514
20531.250000	-145.995605
20578.125000	-148.504807
20625.000000	-148.743057
20671.875000	-147.772995
20718.750000	-146.735046
20765.625000	-146.838165
20812.500000	-148.076492
20859.375000	-146.605453
20906.250000	-137.632980
20953.125000	-131.502060
21000.000000	-131.099335
21046.875000	-133.830551
21093.750000	-141.957413
21140.625000	-146.963898
21187.500000	-147.518600
21234.375000	-148.262833
21281.250000	-148.711441
21328.125000	-148.439590
21375.000000	-148.076019
21421.875000	-148.173981
21468.750000	-148.228714
21515.625000	-148.283997
21562.500000	-148.298904
21609.375000	-148.343948
21656.250000	-148.288101
21703.125000	-148.450699
21750.000000	-147.824936
21796.875000	-147.652756
21843.750000	-147.773682
21890.625000	-148.108658
21937.500000	-147.687759
21984.375000	-147.669815
22031.250000	-147.686081
22078.125000	-148.188263
22125.000000	-147.814621
22171.875000	-147.488922
22218.750000	-147.676651
22265.625000	-147.092560
22312.500000	-144.728882
22359.375000	-141.579926
22406.250000	-138.047760
22453.125000	-131.288620
22500.000000	-131.826233
22546.875000	-138.052032
22593.750000	-141.980026
22640.625000	-143.491928
22687.500000	-145.789459
22734.375000	-146.404327
22781.250000	-146.758713
22828.125000	-147.141495
22875.000000	-146.869965
22921.875000	-147.075653
22968.750000	-147.560196
23015.625000	-147.957901
23062.500000	-147.578445
23109.375000	-147.171906
23156.250000	-147.212250
23203.125000	-147.554581
23250.000000	-147.391754
23296.875000	-147.225769
23343.750000	-147.287811
23390.625000	-147.310791
23437.500000	-147.602112
23484.375000	-147.392349
23531.250000	-147.119293
23578.125000	-147.273819
23625.000000	-147.081497
23671.875000	-147.440781
23718.750000	-147.563232
23765.625000	-147.212036
23812.500000	-146.868286
23859.375000	-143.705078
23906.250000	-135.674850
23953.125000	-132.042221
