Frequency (Hz)	Level (dB)
46.875000	-37.425465
93.750000	-44.252132
140.625000	-48.068146
187.500000	-49.787811
234.375000	-51.038025
281.250000	-51.520168
328.125000	-51.549519
375.000000	-51.616180
421.875000	-52.438366
468.750000	-51.737751
515.625000	-52.494663
562.500000	-53.357670
609.375000	-53.640472
656.250000	-53.394325
703.125000	-52.917175
750.000000	-53.359047
796.875000	-53.847717
843.750000	-53.948483
890.625000	-53.671677
937.500000	-53.755547
984.375000	-54.516380
1031.250000	-54.715130
1078.125000	-55.008778
1125.000000	-55.023716
1171.875000	-55.380440
1218.750000	-55.691566
1265.625000	-55.993000
1312.500000	-56.567478
1359.375000	-56.653336
1406.250000	-56.655769
1453.125000	-57.196285
1500.000000	-57.296703
1546.875000	-57.587360
1593.750000	-57.958378
1640.625000	-57.980999
1687.500000	-58.552032
1734.375000	-59.290489
1781.250000	-59.039276
1828.125000	-58.822628
1875.000000	-59.254086
1921.875000	-59.788223
1968.750000	-59.428513
2015.625000	-59.301517
2062.500000	-59.517860
2109.375000	-60.297604
2156.250000	-59.625820
2203.125000	-60.264587
2250.000000	-60.313766
2296.875000	-60.024414
2343.750000	-60.251255
2390.625000	-61.011005
2437.500000	-60.869232
2484.375000	-60.146912
2531.250000	-60.241180
2578.125000	-60.398033
2625.000000	-60.693966
2671.875000	-60.935997
2718.750000	-60.616867
2765.625000	-60.984859
2812.500000	-60.756950
2859.375000	-60.858192
2906.250000	-61.224033
2953.125000	-61.551548
3000.000000	-61.813538
3046.875000	-61.503284
3093.750000	-61.248577
3140.625000	-61.106163
3187.500000	-61.174812
3234.375000	-61.639622
3281.250000	-61.390469
3328.125000	-61.330681
3375.000000	-61.152054
3421.875000	-61.298706
3468.750000	-61.732254
3515.625000	-61.858467
3562.500000	-62.035862
3609.375000	-62.275982
3656.250000	-62.420387
3703.125000	-62.596973
3750.000000	-62.543812
3796.875000	-62.489170
3843.750000	-62.026745
3890.625000	-62.377392
3937.500000	-62.334156
3984.375000	-62.275166
4031.250000	-62.972504
4078.125000	-62.753254
4125.000000	-62.481548
4171.875000	-61.914612
4218.750000	-62.028564
4265.625000	-62.864437
4312.500000	-63.134212
4359.375000	-62.896610
4406.250000	-63.006519
4453.125000	-63.127281
4500.000000	-63.471146
4546.875000	-63.628792
4593.750000	-63.314030
4640.625000	-63.049988
4687.500000	-63.126434
4734.375000	-63.268887
4781.250000	-63.773739
4828.125000	-64.018280
4875.000000	-63.747540
4921.875000	-63.833237
4968.750000	-63.555328
5015.625000	-63.747185
5062.500000	-64.046577
5109.375000	-64.101166
5156.250000	-63.704628
5203.125000	-64.309120
5250.000000	-64.555428
5296.875000	-64.214104
5343.750000	-64.890198
5390.625000	-64.733009
5437.500000	-64.968605
5484.375000	-64.659813
5531.250000	-64.367073
5578.125000	-65.130501
5625.000000	-65.372276
5671.875000	-65.552689
5718.750000	-65.257721
5765.625000	-64.902962
5812.500000	-65.745483
5859.375000	-66.236275
5906.250000	-66.341446
5953.125000	-66.062263
6000.000000	-65.618797
6046.875000	-65.882133
6093.750000	-66.023346
6140.625000	-66.155365
6187.500000	-66.314301
6234.375000	-66.258972
6281.250000	-66.391731
6328.125000	-66.460487
6375.000000	-66.705139
6421.875000	-66.773033
6468.750000	-67.070221
6515.625000	-67.201523
6562.500000	-67.204323
6609.375000	-67.457703
6656.250000	-67.885208
6703.125000	-68.120903
6750.000000	-67.769974
6796.875000	-67.776253
6843.750000	-67.806084
6890.625000	-67.738281
6937.500000	-68.321022
6984.375000	-68.177292
7031.250000	-68.316269
7078.125000	-68.630539
7125.000000	-68.454231
7171.875000	-68.327675
7218.750000	-68.929993
7265.625000	-68.993279
7312.500000	-69.348984
7359.375000	-69.458069
7406.250000	-69.567955
7453.125000	-69.663353
7500.000000	-70.134415
7546.875000	-69.896385
7593.750000	-69.494804
7640.625000	-69.476082
7687.500000	-69.739120
7734.375000	-69.787422
7781.250000	-70.079727
7828.125000	-69.931732
7875.000000	-70.431503
7921.875000	-70.034813
7968.750000	-70.083076
8015.625000	-70.492935
8062.500000	-70.279984
8109.375000	-70.124802
8156.250000	-70.588974
8203.125000	-70.537971
8250.000000	-70.285187
8296.875000	-70.133492
8343.750000	-70.363823
8390.625000	-70.382080
8437.500000	-70.762024
8484.375000	-71.052643
8531.250000	-71.094070
8578.125000	-71.087151
8625.000000	-71.345741
8671.875000	-71.179329
8718.750000	-70.964134
8765.625000	-71.199669
8812.500000	-71.098686
8859.375000	-71.677162
8906.250000	-71.911072
8953.125000	-71.375298
9000.000000	-71.322868
9046.875000	-71.804718
9093.750000	-71.928741
9140.625000	-71.885399
9187.500000	-71.823235
9234.375000	-72.002052
9281.250000	-72.614746
9328.125000	-72.505875
9375.000000	-72.291733
9421.875000	-71.864952
9468.750000	-72.178085
9515.625000	-72.416306
9562.500000	-71.987793
9609.375000	-72.514580
9656.250000	-72.545578
9703.125000	-72.053650
9750.000000	-72.067841
9796.875000	-72.117050
9843.750000	-72.297409
9890.625000	-72.080399
9937.500000	-72.229347
9984.375000	-71.929443
10031.250000	-72.149437
10078.125000	-72.447739
10125.000000	-72.263924
10171.875000	-72.901787
10218.750000	-72.979431
10265.625000	-73.065514
10312.500000	-73.113441
10359.375000	-73.053581
10406.250000	-72.945564
10453.125000	-72.999168
10500.000000	-73.161186
10546.875000	-73.279388
10593.750000	-73.391853
10640.625000	-73.762619
10687.500000	-74.015602
10734.375000	-74.136848
10781.250000	-74.085182
10828.125000	-74.831261
10875.000000	-74.469757
10921.875000	-74.206383
10968.750000	-74.417984
11015.625000	-75.151169
11062.500000	-75.071854
11109.375000	-75.767532
11156.250000	-75.980721
11203.125000	-75.748726
11250.000000	-75.693558
11296.875000	-75.649239
11343.750000	-75.903442
11390.625000	-76.266602
11437.500000	-76.393440
11484.375000	-76.593422
11531.250000	-76.473969
11578.125000	-76.208534
11625.000000	-76.971420
11671.875000	-77.257515
11718.750000	-76.714676
11765.625000	-76.477325
11812.500000	-76.756989
11859.375000	-77.143486
11906.250000	-77.765930
11953.125000	-77.908012
12000.000000	-77.898155
12046.875000	-78.060257
12093.750000	-78.201172
12140.625000	-78.452187
12187.500000	-78.331108
12234.375000	-78.669136
12281.250000	-78.637955
12328.125000	-78.966965
12375.000000	-78.886551
12421.875000	-79.158730
12468.750000	-78.948090
12515.625000	-79.365059
12562.500000	-78.802322
12609.375000	-79.321625
12656.250000	-79.896400
12703.125000	-79.735954
12750.000000	-79.416451
12796.875000	-79.849121
12843.750000	-79.655159
12890.625000	-79.538658
12937.500000	-80.066551
12984.375000	-80.966675
13031.250000	-80.749458
13078.125000	-81.182327
13125.000000	-81.482018
13171.875000	-81.463188
13218.750000	-81.303589
13265.625000	-81.936508
13312.500000	-82.194435
13359.375000	-82.023216
13406.250000	-81.881195
13453.125000	-81.600830
13500.000000	-81.654922
13546.875000	-82.177162
13593.750000	-82.277145
13640.625000	-82.199463
13687.500000	-82.088593
13734.375000	-82.595901
13781.250000	-83.111115
13828.125000	-83.282112
13875.000000	-83.181770
13921.875000	-83.264748
13968.750000	-83.821739
14015.625000	-83.655891
14062.500000	-83.730171
14109.375000	-83.881897
14156.250000	-83.352905
14203.125000	-83.839813
14250.000000	-84.088097
14296.875000	-84.260864
14343.750000	-84.269974
14390.625000	-84.308502
14437.500000	-84.646111
14484.375000	-85.178368
14531.250000	-85.021599
14578.125000	-84.837967
14625.000000	-84.761986
14671.875000	-85.082291
14718.750000	-85.464363
14765.625000	-86.040855
14812.500000	-85.798508
14859.375000	-85.304588
14906.250000	-85.500755
14953.125000	-85.844063
15000.000000	-85.895271
15046.875000	-86.025063
15093.750000	-86.054527
15140.625000	-86.574661
15187.500000	-86.458237
15234.375000	-86.205162
15281.250000	-86.784225
15328.125000	-86.386032
15375.000000	-87.022591
15421.875000	-87.306870
15468.750000	-87.003342
15515.625000	-87.353447
15562.500000	-87.475899
15609.375000	-87.314125
15656.250000	-86.846207
15703.125000	-87.458710
15750.000000	-87.777824
15796.875000	-87.342186
15843.750000	-87.524803
15890.625000	-87.771355
15937.500000	-88.166756
15984.375000	-87.692390
16031.250000	-86.708160
16078.125000	-86.839134
16125.000000	-87.308662
16171.875000	-87.267525
16218.750000	-87.451752
16265.625000	-87.758774
16312.500000	-87.089424
16359.375000	-86.475792
16406.250000	-87.156921
16453.125000	-87.815506
16500.000000	-87.719986
16546.875000	-88.043610
16593.750000	-88.500427
16640.625000	-88.328712
16687.500000	-88.425858
16734.375000	-88.373192
16781.250000	-88.051361
16828.125000	-88.062424
16875.000000	-88.332191
16921.875000	-88.747177
16968.750000	-88.580460
17015.625000	-88.778763
17062.500000	-88.469002
17109.375000	-87.974228
17156.250000	-88.171883
17203.125000	-88.493561
17250.000000	-88.755524
17296.875000	-88.853302
17343.750000	-89.015854
17390.625000	-88.683731
17437.500000	-88.733421
17484.375000	-88.706169
17531.250000	-88.879074
17578.125000	-89.380692
17625.000000	-89.760666
17671.875000	-89.325478
17718.750000	-89.293861
17765.625000	-89.790283
17812.500000	-89.434113
17859.375000	-89.147743
17906.250000	-89.150963
17953.125000	-89.276810
18000.000000	-89.518288
18046.875000	-89.846786
18093.750000	-90.331497
18140.625000	-90.036049
18187.500000	-89.444130
18234.375000	-89.711830
18281.250000	-90.161972
18328.125000	-90.666046
18375.000000	-90.685463
18421.875000	-90.911781
18468.750000	-91.253380
18515.625000	-91.520981
18562.500000	-91.194176
18609.375000	-91.377609
18656.250000	-91.273186
18703.125000	-90.891861
18750.000000	-90.630104
18796.875000	-89.985138
18843.750000	-90.358856
18890.625000	-91.092522
18937.500000	-90.770844
18984.375000	-91.096016
19031.250000	-90.976730
19078.125000	-90.958366
19125.000000	-92.347878
19171.875000	-92.681053
19218.750000	-92.728142
19265.625000	-93.388420
19312.500000	-93.110497
19359.375000	-93.940956
19406.250000	-95.033134
19453.125000	-94.243866
19500.000000	-94.545219
19546.875000	-97.752625
19593.750000	-102.986389
19640.625000	-111.323715
19687.500000	-119.564156
19734.375000	-124.965233
19781.250000	-130.043533
19828.125000	-134.969101
19875.000000	-139.533707
19921.875000	-142.531174
19968.750000	-144.410995
20015.625000	-145.979904
20062.500000	-147.910370
20109.375000	-148.532333
20156.250000	-147.457016
20203.125000	-146.686432
20250.000000	-147.163300
20296.875000	-146.599579
20343.750000	-147.074936
20390.625000	-147.307327
20437.500000	-147.700867
20484.375000	-148.139145
20531.250000	-148.579468
20578.125000	-149.136795
20625.000000	-149.206070
20671.875000	-148.987274
20718.750000	-148.494492
20765.625000	-148.983353
20812.500000	-149.063675
20859.375000	-149.189240
20906.250000	-147.992340
20953.125000	-145.557724
21000.000000	-144.099533
21046.875000	-146.367218
21093.750000	-148.539536
21140.625000	-148.662567
21187.500000	-148.491486
21234.375000	-148.551819
21281.250000	-148.955002
21328.125000	-148.883011
21375.000000	-148.152283
21421.875000	-147.872757
21468.750000	-147.861649
21515.625000	-148.309189
21562.500000	-148.300171
21609.375000	-148.050461
21656.250000	-147.762741
21703.125000	-147.716263
21750.000000	-147.567490
21796.875000	-147.638123
21843.750000	-147.878510
21890.625000	-148.054337
21937.500000	-147.816208
21984.375000	-147.904968
22031.250000	-147.807602
22078.125000	-147.799240
22125.000000	-147.823944
22171.875000	-147.663116
22218.750000	-147.778961
22265.625000	-147.525467
22312.500000	-147.792313
22359.375000	-147.498581
22406.250000	-147.073425
22453.125000	-144.596085
22500.000000	-144.009247
22546.875000	-146.627319
22593.750000	-147.597900
22640.625000	-147.483521
22687.500000	-147.646530
22734.375000	-147.860840
22781.250000	-147.759720
22828.125000	-147.282990
22875.000000	-147.192398
22921.875000	-147.320923
22968.750000	-147.472031
23015.625000	-147.452530
23062.500000	-147.217163
23109.375000	-147.211105
23156.250000	-147.554688
23203.125000	-147.590393
23250.000000	-147.390137
23296.875000	-147.084152
23343.750000	-146.956329
23390.625000	-147.296677
23437.500000	-147.624847
23484.375000	-147.293732
23531.250000	-146.883575
23578.125000	-147.122040
23625.000000	-147.062195
23671.875000	-147.233276
23718.750000	-147.843689
23765.625000	-147.645279
23812.500000	-147.626938
23859.375000	-147.579941
23906.250000	-146.519318
23953.125000	-145.494263
