Frequency (Hz)	Level (dB)
46.875000	-23.646494
93.750000	-32.949780
140.625000	-41.672276
187.500000	-46.566090
234.375000	-48.797108
281.250000	-49.422920
328.125000	-49.651718
375.000000	-49.377190
421.875000	-49.189972
468.750000	-50.008839
515.625000	-51.524242
562.500000	-52.106140
609.375000	-51.885895
656.250000	-51.845165
703.125000	-51.911964
750.000000	-51.623810
796.875000	-51.283928
843.750000	-51.562035
890.625000	-51.758995
937.500000	-51.782734
984.375000	-52.223869
1031.250000	-52.731647
1078.125000	-53.272640
1125.000000	-53.983658
1171.875000	-54.318893
1218.750000	-54.190495
1265.625000	-54.923119
1312.500000	-55.404121
1359.375000	-55.485462
1406.250000	-55.907982
1453.125000	-56.490692
1500.000000	-56.434013
1546.875000	-56.484024
1593.750000	-56.856483
1640.625000	-56.992615
1687.500000	-57.205402
1734.375000	-57.411606
1781.250000	-57.955956
1828.125000	-57.894890
1875.000000	-58.116772
1921.875000	-58.652870
1968.750000	-59.314518
2015.625000	-59.547482
2062.500000	-59.570202
2109.375000	-59.813679
2156.250000	-59.810692
2203.125000	-59.691048
2250.000000	-59.839252
2296.875000	-59.815380
2343.750000	-60.219326
2390.625000	-59.867203
2437.500000	-59.485989
2484.375000	-59.598751
2531.250000	-59.979237
2578.125000	-60.154724
2625.000000	-60.019909
2671.875000	-59.961338
2718.750000	-60.138935
2765.625000	-60.082138
2812.500000	-60.155323
2859.375000	-60.204403
2906.250000	-60.549656
2953.125000	-60.887707
3000.000000	-60.849754
3046.875000	-60.720116
3093.750000	-60.597347
3140.625000	-60.879200
3187.500000	-60.909027
3234.375000	-60.833099
3281.250000	-61.008087
3328.125000	-61.135376
3375.000000	-61.272850
3421.875000	-61.434784
3468.750000	-61.283882
3515.625000	-61.027908
3562.500000	-60.800083
3609.375000	-61.334778
3656.250000	-61.219791
3703.125000	-61.484051
3750.000000	-61.409920
3796.875000	-61.367699
3843.750000	-61.168049
3890.625000	-61.272247
3937.500000	-61.778942
3984.375000	-62.150822
4031.250000	-62.003803
4078.125000	-61.471954
4125.000000	-61.682816
4171.875000	-62.112617
4218.750000	-62.272076
4265.625000	-62.219231
4312.500000	-62.088455
4359.375000	-61.625809
4406.250000	-61.894855
4453.125000	-62.239395
4500.000000	-62.040382
4546.875000	-62.247017
4593.750000	-62.468861
4640.625000	-62.624252
4687.500000	-62.723808
4734.375000	-62.862431
4781.250000	-62.541355
4828.125000	-62.543789
4875.000000	-63.035503
4921.875000	-63.077168
4968.750000	-63.007954
5015.625000	-63.079796
5062.500000	-63.275856
5109.375000	-63.488552
5156.250000	-63.368279
5203.125000	-62.874130
5250.000000	-63.622910
5296.875000	-64.186623
5343.750000	-63.775452
5390.625000	-63.496029
5437.500000	-63.689713
5484.375000	-64.311066
5531.250000	-64.089714
5578.125000	-63.898373
5625.000000	-64.051849
5671.875000	-64.164810
5718.750000	-64.480820
5765.625000	-64.449936
5812.500000	-64.569290
5859.375000	-64.628151
5906.250000	-64.475029
5953.125000	-64.915001
6000.000000	-65.098747
6046.875000	-65.394089
6093.750000	-65.570763
6140.625000	-65.910423
6187.500000	-65.529678
6234.375000	-65.101799
6281.250000	-65.345284
6328.125000	-66.084152
6375.000000	-66.220581
6421.875000	-66.466370
6468.750000	-66.339241
6515.625000	-66.290253
6562.500000	-66.053764
6609.375000	-66.628967
6656.250000	-67.068733
6703.125000	-67.337982
6750.000000	-67.224281
6796.875000	-67.153008
6843.750000	-67.546402
6890.625000	-67.513184
6937.500000	-67.540527
6984.375000	-67.914436
7031.250000	-67.853271
7078.125000	-67.932030
7125.000000	-68.140953
7171.875000	-68.325157
7218.750000	-68.258690
7265.625000	-68.329674
7312.500000	-68.732658
7359.375000	-68.883133
7406.250000	-68.720665
7453.125000	-68.778038
7500.000000	-68.698936
7546.875000	-69.128998
7593.750000	-68.868454
7640.625000	-69.068680
7687.500000	-69.410583
7734.375000	-69.271187
7781.250000	-69.580978
7828.125000	-69.727989
7875.000000	-69.608101
7921.875000	-69.864029
7968.750000	-70.021889
8015.625000	-69.755058
8062.500000	-69.603394
8109.375000	-69.682747
8156.250000	-69.638641
8203.125000	-69.698029
8250.000000	-69.933929
8296.875000	-70.069221
8343.750000	-69.759628
8390.625000	-69.998039
8437.500000	-70.515991
8484.375000	-70.208549
8531.250000	-70.049988
8578.125000	-70.305336
8625.000000	-70.416710
8671.875000	-70.546509
8718.750000	-70.766701
8765.625000	-70.588097
8812.500000	-70.733559
8859.375000	-70.730377
8906.250000	-70.554260
8953.125000	-70.632309
9000.000000	-71.013451
9046.875000	-71.182175
9093.750000	-71.032181
9140.625000	-71.096146
9187.500000	-71.383102
9234.375000	-71.684486
9281.250000	-71.453033
9328.125000	-71.006317
9375.000000	-71.279182
9421.875000	-71.531433
9468.750000	-71.663567
9515.625000	-71.650352
9562.500000	-71.783699
9609.375000	-71.500465
9656.250000	-72.001572
9703.125000	-72.198715
9750.000000	-72.108704
9796.875000	-72.135963
9843.750000	-71.921921
9890.625000	-71.533218
9937.500000	-71.640228
9984.375000	-71.733475
10031.250000	-72.031136
10078.125000	-71.947983
10125.000000	-71.998604
10171.875000	-72.026382
10218.750000	-72.323959
10265.625000	-72.199348
10312.500000	-72.416893
10359.375000	-72.318787
10406.250000	-72.663895
10453.125000	-72.457222
10500.000000	-72.683800
10546.875000	-72.916611
10593.750000	-72.961403
10640.625000	-73.237160
10687.500000	-73.143608
10734.375000	-73.073685
10781.250000	-73.383942
10828.125000	-73.392082
10875.000000	-74.147682
10921.875000	-74.016350
10968.750000	-73.691162
11015.625000	-73.522156
11062.500000	-73.752464
11109.375000	-74.163528
11156.250000	-74.297211
11203.125000	-74.398689
11250.000000	-74.731819
11296.875000	-75.140083
11343.750000	-75.081665
11390.625000	-75.602493
11437.500000	-75.196983
11484.375000	-75.251282
11531.250000	-75.712860
11578.125000	-75.484886
11625.000000	-75.549576
11671.875000	-75.713646
11718.750000	-76.396782
11765.625000	-76.241714
11812.500000	-76.371262
11859.375000	-76.432884
11906.250000	-76.580261
11953.125000	-76.995232
12000.000000	-77.330017
12046.875000	-77.239006
12093.750000	-76.998840
12140.625000	-77.227875
12187.500000	-77.687012
12234.375000	-77.975494
12281.250000	-78.000336
12328.125000	-77.652534
12375.000000	-78.018257
12421.875000	-78.406876
12468.750000	-78.413277
12515.625000	-78.457748
12562.500000	-78.776047
12609.375000	-78.929634
12656.250000	-79.319389
12703.125000	-79.083107
12750.000000	-78.431870
12796.875000	-78.513054
12843.750000	-79.072052
12890.625000	-79.042450
12937.500000	-79.237694
12984.375000	-79.301239
13031.250000	-79.714943
13078.125000	-79.939362
13125.000000	-80.140343
13171.875000	-80.174995
13218.750000	-80.525124
13265.625000	-80.694672
13312.500000	-80.985046
13359.375000	-80.917923
13406.250000	-80.954987
13453.125000	-80.981422
13500.000000	-81.542007
13546.875000	-81.570854
13593.750000	-81.361671
13640.625000	-81.398048
13687.500000	-81.526100
13734.375000	-82.110260
13781.250000	-82.292221
13828.125000	-82.189362
13875.000000	-82.296661
13921.875000	-82.271027
13968.750000	-82.439461
14015.625000	-82.430351
14062.500000	-82.667229
14109.375000	-82.712051
14156.250000	-82.931183
14203.125000	-83.126152
14250.000000	-83.098053
14296.875000	-83.121780
14343.750000	-83.509186
14390.625000	-83.779060
14437.500000	-83.795471
14484.375000	-83.799469
14531.250000	-83.880814
14578.125000	-83.922813
14625.000000	-83.582970
14671.875000	-83.970650
14718.750000	-83.976158
14765.625000	-84.459785
14812.500000	-84.674072
14859.375000	-84.329674
14906.250000	-84.643875
14953.125000	-85.021736
15000.000000	-84.796852
15046.875000	-84.468277
15093.750000	-84.899239
15140.625000	-85.111282
15187.500000	-85.062057
15234.375000	-84.824272
15281.250000	-84.983994
15328.125000	-85.282196
15375.000000	-85.478973
15421.875000	-85.548340
15468.750000	-86.043221
15515.625000	-85.965538
15562.500000	-85.722656
15609.375000	-86.039139
15656.250000	-86.318504
15703.125000	-86.013008
15750.000000	-85.841614
15796.875000	-86.013641
15843.750000	-86.132233
15890.625000	-86.293320
15937.500000	-86.281662
15984.375000	-86.434471
16031.250000	-86.812439
16078.125000	-86.912041
16125.000000	-86.252922
16171.875000	-86.270538
16218.750000	-86.233032
16265.625000	-86.063461
16312.500000	-85.823868
16359.375000	-85.934258
16406.250000	-86.559143
16453.125000	-86.509834
16500.000000	-87.164696
16546.875000	-87.079712
16593.750000	-86.864349
16640.625000	-87.108131
16687.500000	-86.479095
16734.375000	-86.877205
16781.250000	-88.018166
16828.125000	-87.725960
16875.000000	-87.613945
16921.875000	-87.558334
16968.750000	-87.337234
17015.625000	-87.673866
17062.500000	-88.123230
17109.375000	-88.619102
17156.250000	-87.798073
17203.125000	-87.641350
17250.000000	-87.894028
17296.875000	-87.814171
17343.750000	-87.894295
17390.625000	-87.978981
17437.500000	-88.206802
17484.375000	-88.416168
17531.250000	-88.963547
17578.125000	-89.162704
17625.000000	-88.930893
17671.875000	-88.429184
17718.750000	-88.652031
17765.625000	-88.839104
17812.500000	-87.839355
17859.375000	-88.529594
17906.250000	-88.913376
17953.125000	-88.749077
18000.000000	-88.928337
18046.875000	-89.949043
18093.750000	-89.997200
18140.625000	-88.959427
18187.500000	-88.879471
18234.375000	-89.895096
18281.250000	-89.932228
18328.125000	-90.653313
18375.000000	-90.868576
18421.875000	-90.619926
18468.750000	-90.300804
18515.625000	-90.105553
18562.500000	-90.190926
18609.375000	-90.450211
18656.250000	-91.048019
18703.125000	-91.394417
18750.000000	-91.831154
18796.875000	-92.705917
18843.750000	-92.576523
18890.625000	-92.432938
18937.500000	-92.256912
18984.375000	-92.524521
19031.250000	-92.768173
19078.125000	-92.538910
19125.000000	-92.467461
19171.875000	-91.968636
19218.750000	-93.551414
19265.625000	-95.307884
19312.500000	-93.972534
19359.375000	-93.879089
19406.250000	-95.267464
19453.125000	-95.712898
19500.000000	-96.733315
19546.875000	-100.942650
19593.750000	-103.136917
19640.625000	-109.010727
19687.500000	-118.889977
19734.375000	-126.217842
19781.250000	-131.868301
19828.125000	-137.339249
19875.000000	-141.692490
19921.875000	-143.724594
19968.750000	-142.822388
20015.625000	-141.303223
20062.500000	-139.659012
20109.375000	-138.740463
20156.250000	-138.973999
20203.125000	-140.886810
20250.000000	-144.550140
20296.875000	-147.067383
20343.750000	-146.713638
20390.625000	-146.724411
20437.500000	-146.906235
20484.375000	-148.315201
20531.250000	-148.736465
20578.125000	-148.841675
20625.000000	-149.015045
20671.875000	-148.510803
20718.750000	-148.133377
20765.625000	-148.715622
20812.500000	-148.942627
20859.375000	-148.718979
20906.250000	-142.976120
20953.125000	-134.352509
21000.000000	-132.094650
21046.875000	-135.752029
21093.750000	-145.447037
21140.625000	-148.418152
21187.500000	-148.539169
21234.375000	-148.677902
21281.250000	-148.740387
21328.125000	-148.564896
21375.000000	-148.260025
21421.875000	-148.120850
21468.750000	-147.976822
21515.625000	-148.113480
21562.500000	-148.413162
21609.375000	-148.091461
21656.250000	-148.021561
21703.125000	-147.827042
21750.000000	-147.541763
21796.875000	-147.574905
21843.750000	-147.591171
21890.625000	-147.724670
21937.500000	-147.839859
21984.375000	-148.014435
22031.250000	-147.813110
22078.125000	-147.684723
22125.000000	-147.378540
22171.875000	-147.230728
22218.750000	-147.788651
22265.625000	-147.804260
22312.500000	-147.606735
22359.375000	-146.537704
22406.250000	-143.168808
22453.125000	-133.854874
22500.000000	-132.546844
22546.875000	-138.738586
22593.750000	-146.125473
22640.625000	-146.833328
22687.500000	-147.404007
22734.375000	-147.526001
22781.250000	-147.752930
22828.125000	-147.593796
22875.000000	-147.389893
22921.875000	-147.032013
22968.750000	-147.029694
23015.625000	-147.438889
23062.500000	-147.558548
23109.375000	-147.058105
23156.250000	-147.032013
23203.125000	-146.964188
23250.000000	-147.237381
23296.875000	-147.450119
23343.750000	-146.786804
23390.625000	-147.110168
23437.500000	-147.576416
23484.375000	-147.370193
23531.250000	-147.252029
23578.125000	-147.103287
23625.000000	-146.726715
23671.875000	-147.325638
23718.750000	-147.607162
23765.625000	-146.898514
23812.500000	-147.048065
23859.375000	-146.776901
23906.250000	-141.933563
23953.125000	-136.563919
