Frequency (Hz)	Level (dB)
46.875000	-38.607563
93.750000	-44.636562
140.625000	-48.594234
187.500000	-52.152481
234.375000	-53.307056
281.250000	-53.520245
328.125000	-53.528042
375.000000	-53.453938
421.875000	-53.967926
468.750000	-54.028549
515.625000	-53.861645
562.500000	-53.243439
609.375000	-53.004375
656.250000	-53.362217
703.125000	-53.104923
750.000000	-52.326077
796.875000	-52.522572
843.750000	-52.539719
890.625000	-52.317707
937.500000	-52.799023
984.375000	-53.499664
1031.250000	-54.319878
1078.125000	-54.604698
1125.000000	-54.917061
1171.875000	-55.618454
1218.750000	-55.958794
1265.625000	-55.952927
1312.500000	-56.620815
1359.375000	-57.278172
1406.250000	-58.008854
1453.125000	-58.527191
1500.000000	-58.999538
1546.875000	-58.934399
1593.750000	-59.011734
1640.625000	-58.946705
1687.500000	-59.457340
1734.375000	-60.173042
1781.250000	-60.544346
1828.125000	-60.698601
1875.000000	-60.550537
1921.875000	-60.610477
1968.750000	-60.909870
2015.625000	-61.546196
2062.500000	-62.217987
2109.375000	-62.215527
2156.250000	-62.332909
2203.125000	-62.365646
2250.000000	-62.547558
2296.875000	-62.508408
2343.750000	-62.495808
2390.625000	-62.620167
2437.500000	-62.741848
2484.375000	-62.932606
2531.250000	-62.802059
2578.125000	-62.581284
2625.000000	-62.404747
2671.875000	-62.576073
2718.750000	-62.716522
2765.625000	-62.819607
2812.500000	-62.797676
2859.375000	-62.506321
2906.250000	-62.944927
2953.125000	-63.216240
3000.000000	-63.021145
3046.875000	-62.983807
3093.750000	-63.185349
3140.625000	-62.966736
3187.500000	-62.937267
3234.375000	-62.835518
3281.250000	-63.242100
3328.125000	-63.720242
3375.000000	-63.586952
3421.875000	-63.964142
3468.750000	-63.824329
3515.625000	-63.680637
3562.500000	-63.765583
3609.375000	-63.839787
3656.250000	-63.757877
3703.125000	-63.885719
3750.000000	-63.448959
3796.875000	-63.386578
3843.750000	-63.768318
3890.625000	-63.856140
3937.500000	-64.495079
3984.375000	-64.477676
4031.250000	-64.013512
4078.125000	-64.293350
4125.000000	-64.436554
4171.875000	-64.465218
4218.750000	-64.493362
4265.625000	-64.700394
4312.500000	-65.035088
4359.375000	-64.616432
4406.250000	-64.817627
4453.125000	-64.995453
4500.000000	-64.636749
4546.875000	-65.001221
4593.750000	-65.596909
4640.625000	-65.342957
4687.500000	-65.225853
4734.375000	-65.024475
4781.250000	-65.201523
4828.125000	-65.544121
4875.000000	-65.899422
4921.875000	-66.107101
4968.750000	-65.986916
5015.625000	-66.094086
5062.500000	-66.299286
5109.375000	-66.219307
5156.250000	-66.466347
5203.125000	-66.289345
5250.000000	-66.619110
5296.875000	-67.066475
5343.750000	-66.822487
5390.625000	-66.662689
5437.500000	-67.034416
5484.375000	-67.021263
5531.250000	-67.102661
5578.125000	-67.699951
5625.000000	-67.868980
5671.875000	-68.101852
5718.750000	-68.009201
5765.625000	-67.913315
5812.500000	-68.617882
5859.375000	-68.736740
5906.250000	-68.574997
5953.125000	-69.085091
6000.000000	-69.048256
6046.875000	-69.293472
6093.750000	-69.869858
6140.625000	-69.839378
6187.500000	-69.875107
6234.375000	-70.007523
6281.250000	-70.113770
6328.125000	-69.934441
6375.000000	-70.253113
6421.875000	-70.417274
6468.750000	-70.599060
6515.625000	-70.807076
6562.500000	-70.841064
6609.375000	-70.901680
6656.250000	-71.272438
6703.125000	-71.851440
6750.000000	-72.034286
6796.875000	-72.091087
6843.750000	-71.988617
6890.625000	-72.236900
6937.500000	-73.186455
6984.375000	-73.503540
7031.250000	-73.200829
7078.125000	-72.947792
7125.000000	-73.493729
7171.875000	-74.035133
7218.750000	-74.198296
7265.625000	-74.304573
7312.500000	-74.167961
7359.375000	-74.489662
7406.250000	-74.784843
7453.125000	-74.456383
7500.000000	-74.363136
7546.875000	-74.736504
7593.750000	-75.167404
7640.625000	-75.260704
7687.500000	-75.496468
7734.375000	-74.956024
7781.250000	-74.948120
7828.125000	-75.653938
7875.000000	-75.932533
7921.875000	-76.045990
7968.750000	-76.181633
8015.625000	-76.681870
8062.500000	-76.455994
8109.375000	-76.173126
8156.250000	-75.566315
8203.125000	-76.001060
8250.000000	-76.449707
8296.875000	-76.395973
8343.750000	-76.602310
8390.625000	-76.994064
8437.500000	-77.324371
8484.375000	-77.190666
8531.250000	-77.774200
8578.125000	-77.941505
8625.000000	-77.853676
8671.875000	-77.845863
8718.750000	-77.999886
8765.625000	-78.355286
8812.500000	-78.224831
8859.375000	-78.302208
8906.250000	-78.355484
8953.125000	-78.832825
9000.000000	-79.057632
9046.875000	-78.602875
9093.750000	-78.746490
9140.625000	-79.059914
9187.500000	-79.426506
9234.375000	-79.343155
9281.250000	-79.236115
9328.125000	-79.409172
9375.000000	-80.035027
9421.875000	-80.262138
9468.750000	-80.211990
9515.625000	-80.535934
9562.500000	-80.531670
9609.375000	-80.355064
9656.250000	-80.981773
9703.125000	-81.461357
9750.000000	-81.226128
9796.875000	-81.284866
9843.750000	-80.952438
9890.625000	-80.987679
9937.500000	-81.012886
9984.375000	-80.931221
10031.250000	-81.523636
10078.125000	-81.643333
10125.000000	-81.508644
10171.875000	-81.655930
10218.750000	-81.895851
10265.625000	-82.186943
10312.500000	-82.487724
10359.375000	-82.282059
10406.250000	-82.841339
10453.125000	-82.899071
10500.000000	-83.057663
10546.875000	-82.865082
10593.750000	-82.762505
10640.625000	-82.899879
10687.500000	-83.049973
10734.375000	-83.553154
10781.250000	-83.924141
10828.125000	-84.029030
10875.000000	-84.044662
10921.875000	-84.231346
10968.750000	-84.185280
11015.625000	-83.971138
11062.500000	-84.354759
11109.375000	-84.410805
11156.250000	-84.605698
11203.125000	-84.866722
11250.000000	-84.766144
11296.875000	-85.112236
11343.750000	-85.276756
11390.625000	-85.390038
11437.500000	-85.667595
11484.375000	-85.553299
11531.250000	-85.743073
11578.125000	-86.358597
11625.000000	-86.801186
11671.875000	-86.630867
11718.750000	-86.879669
11765.625000	-87.215141
11812.500000	-87.301025
11859.375000	-87.681557
11906.250000	-87.786987
11953.125000	-87.888283
12000.000000	-87.918785
12046.875000	-88.361717
12093.750000	-88.292015
12140.625000	-88.512260
12187.500000	-88.550186
12234.375000	-88.764122
12281.250000	-88.960754
12328.125000	-89.089592
12375.000000	-89.788406
12421.875000	-89.606544
12468.750000	-89.215477
12515.625000	-89.509834
12562.500000	-90.054451
12609.375000	-90.220726
12656.250000	-90.454857
12703.125000	-90.949295
12750.000000	-90.992790
12796.875000	-91.007057
12843.750000	-90.897224
12890.625000	-90.731506
12937.500000	-90.862503
12984.375000	-91.012428
13031.250000	-91.620560
13078.125000	-91.630127
13125.000000	-91.146927
13171.875000	-91.389397
13218.750000	-91.421524
13265.625000	-91.448196
13312.500000	-91.795418
13359.375000	-92.007133
13406.250000	-92.297585
13453.125000	-92.411774
13500.000000	-92.366386
13546.875000	-92.555992
13593.750000	-92.541679
13640.625000	-92.650322
13687.500000	-93.185524
13734.375000	-93.322128
13781.250000	-93.212677
13828.125000	-93.015236
13875.000000	-93.254105
13921.875000	-93.537849
13968.750000	-93.625008
14015.625000	-93.817261
14062.500000	-93.468864
14109.375000	-93.493668
14156.250000	-93.423195
14203.125000	-93.610344
14250.000000	-93.928055
14296.875000	-93.965660
14343.750000	-93.467941
14390.625000	-93.573463
14437.500000	-93.803223
14484.375000	-94.156815
14531.250000	-94.064415
14578.125000	-94.129448
14625.000000	-94.318901
14671.875000	-94.176826
14718.750000	-94.157097
14765.625000	-94.459557
14812.500000	-94.753220
14859.375000	-94.582321
14906.250000	-92.993721
14953.125000	-92.295265
15000.000000	-92.577774
15046.875000	-94.145164
15093.750000	-94.839615
15140.625000	-94.610123
15187.500000	-94.720879
15234.375000	-95.131859
15281.250000	-95.426964
15328.125000	-94.892448
15375.000000	-94.851524
15421.875000	-95.100464
15468.750000	-95.142090
15515.625000	-95.240128
15562.500000	-95.095726
15609.375000	-95.028786
15656.250000	-95.159431
15703.125000	-95.206711
15750.000000	-95.174477
15796.875000	-95.156982
15843.750000	-94.746315
15890.625000	-94.583900
15937.500000	-94.805672
15984.375000	-94.671265
16031.250000	-94.059273
16078.125000	-93.993599
16125.000000	-94.300354
16171.875000	-94.900688
16218.750000	-94.649117
16265.625000	-93.859955
16312.500000	-94.115883
16359.375000	-94.362808
16406.250000	-94.315903
16453.125000	-93.862984
16500.000000	-93.689590
16546.875000	-94.091301
16593.750000	-94.013893
16640.625000	-94.566200
16687.500000	-94.726418
16734.375000	-94.993729
16781.250000	-95.214844
16828.125000	-95.484055
16875.000000	-95.448479
16921.875000	-94.870697
16968.750000	-94.790039
17015.625000	-95.440239
17062.500000	-95.338066
17109.375000	-94.884003
17156.250000	-94.664742
17203.125000	-94.611023
17250.000000	-95.141304
17296.875000	-94.720383
17343.750000	-94.772316
17390.625000	-95.451599
17437.500000	-95.262604
17484.375000	-94.253365
17531.250000	-94.687363
17578.125000	-95.628677
17625.000000	-95.430351
17671.875000	-94.893860
17718.750000	-95.443275
17765.625000	-95.648071
17812.500000	-95.700752
17859.375000	-95.486397
17906.250000	-95.365776
17953.125000	-95.214745
18000.000000	-95.192650
18046.875000	-95.332603
18093.750000	-95.508652
18140.625000	-95.564644
18187.500000	-95.565765
18234.375000	-95.175102
18281.250000	-95.230469
18328.125000	-95.687706
18375.000000	-96.289093
18421.875000	-96.241226
18468.750000	-95.879929
18515.625000	-95.900726
18562.500000	-96.216095
18609.375000	-96.477158
18656.250000	-96.648056
18703.125000	-96.416313
18750.000000	-96.541824
18796.875000	-96.942490
18843.750000	-97.111435
18890.625000	-97.465431
18937.500000	-98.025574
18984.375000	-98.038750
19031.250000	-98.103745
19078.125000	-98.308853
19125.000000	-97.994057
19171.875000	-97.983025
19218.750000	-99.042412
19265.625000	-99.100487
19312.500000	-98.165352
19359.375000	-98.872604
19406.250000	-100.937386
19453.125000	-100.058624
19500.000000	-100.520554
19546.875000	-104.062592
19593.750000	-107.025375
19640.625000	-112.589737
19687.500000	-122.196808
19734.375000	-129.876205
19781.250000	-135.325592
19828.125000	-140.835892
19875.000000	-145.357254
19921.875000	-145.909485
19968.750000	-145.896835
20015.625000	-146.578949
20062.500000	-146.808624
20109.375000	-146.546097
20156.250000	-147.027893
20203.125000	-147.490997
20250.000000	-147.924667
20296.875000	-148.296661
20343.750000	-148.264206
20390.625000	-148.498642
20437.500000	-148.368073
20484.375000	-148.730560
20531.250000	-149.055771
20578.125000	-149.108124
20625.000000	-148.980759
20671.875000	-148.780899
20718.750000	-148.605652
20765.625000	-148.851593
20812.500000	-148.898636
20859.375000	-149.134262
20906.250000	-148.312653
20953.125000	-146.133392
21000.000000	-144.354202
21046.875000	-146.769333
21093.750000	-149.149796
21140.625000	-149.157761
21187.500000	-148.671982
21234.375000	-148.652969
21281.250000	-148.904404
21328.125000	-148.710831
21375.000000	-148.362000
21421.875000	-148.242188
21468.750000	-148.068802
21515.625000	-148.306488
21562.500000	-148.371841
21609.375000	-148.143829
21656.250000	-147.825043
21703.125000	-147.818344
21750.000000	-147.734375
21796.875000	-148.048035
21843.750000	-148.143524
21890.625000	-148.200378
21937.500000	-147.791977
21984.375000	-147.879654
22031.250000	-147.961395
22078.125000	-148.167526
22125.000000	-147.708160
22171.875000	-147.461746
22218.750000	-147.894577
22265.625000	-147.654053
22312.500000	-147.852692
22359.375000	-147.428696
22406.250000	-147.098068
22453.125000	-144.992432
22500.000000	-143.799622
22546.875000	-146.503952
22593.750000	-147.257172
22640.625000	-146.946701
22687.500000	-147.292389
22734.375000	-147.756134
22781.250000	-147.575974
22828.125000	-147.494858
22875.000000	-147.572281
22921.875000	-147.536331
22968.750000	-147.496078
23015.625000	-147.669525
23062.500000	-147.446518
23109.375000	-147.015060
23156.250000	-146.920563
23203.125000	-147.244766
23250.000000	-147.236725
23296.875000	-147.151550
23343.750000	-146.827454
23390.625000	-147.227448
23437.500000	-147.709122
23484.375000	-147.315048
23531.250000	-147.032928
23578.125000	-147.312317
23625.000000	-147.179184
23671.875000	-147.338165
23718.750000	-147.247879
23765.625000	-147.110031
23812.500000	-147.473419
23859.375000	-147.359100
23906.250000	-146.618591
23953.125000	-145.947998
