Frequency (Hz)	Level (dB)
46.875000	-41.533531
93.750000	-48.746380
140.625000	-56.334801
187.500000	-63.396954
234.375000	-68.267586
281.250000	-70.676231
328.125000	-71.691200
375.000000	-71.677322
421.875000	-71.952454
468.750000	-71.784958
515.625000	-71.481308
562.500000	-71.251831
609.375000	-71.209229
656.250000	-71.020569
703.125000	-70.413231
750.000000	-70.625183
796.875000	-70.559761
843.750000	-70.870720
890.625000	-70.914825
937.500000	-70.661911
984.375000	-71.548035
1031.250000	-72.350159
1078.125000	-72.781998
1125.000000	-73.483604
1171.875000	-74.249077
1218.750000	-74.896881
1265.625000	-75.626015
1312.500000	-76.663193
1359.375000	-76.698753
1406.250000	-76.800621
1453.125000	-77.422539
1500.000000	-77.762428
1546.875000	-78.211540
1593.750000	-78.768517
1640.625000	-79.285263
1687.500000	-79.811317
1734.375000	-80.726585
1781.250000	-81.040825
1828.125000	-81.129776
1875.000000	-81.474342
1921.875000	-82.268074
1968.750000	-82.858253
2015.625000	-82.889420
2062.500000	-82.939415
2109.375000	-83.593025
2156.250000	-83.723770
2203.125000	-83.499001
2250.000000	-83.832245
2296.875000	-84.502792
2343.750000	-84.406746
2390.625000	-84.143837
2437.500000	-84.503326
2484.375000	-84.646706
2531.250000	-84.504791
2578.125000	-84.715530
2625.000000	-85.056236
2671.875000	-84.679405
2718.750000	-85.194481
2765.625000	-86.056252
2812.500000	-86.447586
2859.375000	-86.066803
2906.250000	-85.875877
2953.125000	-86.189789
3000.000000	-86.116096
3046.875000	-86.018242
3093.750000	-86.085449
3140.625000	-86.493866
3187.500000	-86.398300
3234.375000	-86.447296
3281.250000	-86.401344
3328.125000	-86.260178
3375.000000	-86.714005
3421.875000	-86.483772
3468.750000	-86.420319
3515.625000	-86.823708
3562.500000	-86.799828
3609.375000	-86.920380
3656.250000	-86.920082
3703.125000	-86.951721
3750.000000	-87.018494
3796.875000	-87.220200
3843.750000	-87.580002
3890.625000	-88.383118
3937.500000	-88.093079
3984.375000	-87.811142
4031.250000	-87.687805
4078.125000	-87.542397
4125.000000	-87.832359
4171.875000	-88.040451
4218.750000	-87.997971
4265.625000	-87.845390
4312.500000	-87.693459
4359.375000	-87.610344
4406.250000	-88.298737
4453.125000	-88.636986
4500.000000	-88.707268
4546.875000	-88.689873
4593.750000	-88.771019
4640.625000	-88.844810
4687.500000	-88.853394
4734.375000	-88.732185
4781.250000	-88.439857
4828.125000	-88.981995
4875.000000	-89.135056
4921.875000	-89.168076
4968.750000	-89.265579
5015.625000	-89.236107
5062.500000	-89.256317
5109.375000	-89.362358
5156.250000	-89.561966
5203.125000	-89.749863
5250.000000	-89.708046
5296.875000	-89.551903
5343.750000	-89.573036
5390.625000	-89.767845
5437.500000	-90.039078
5484.375000	-89.946060
5531.250000	-90.405914
5578.125000	-90.108131
5625.000000	-90.307076
5671.875000	-90.381126
5718.750000	-90.320999
5765.625000	-90.577278
5812.500000	-91.030464
5859.375000	-91.395111
5906.250000	-91.379135
5953.125000	-91.536407
6000.000000	-91.874062
6046.875000	-92.153618
6093.750000	-91.996346
6140.625000	-92.148735
6187.500000	-92.376289
6234.375000	-92.328690
6281.250000	-92.311493
6328.125000	-92.525406
6375.000000	-92.541603
6421.875000	-92.743568
6468.750000	-92.649406
6515.625000	-93.379730
6562.500000	-94.125839
6609.375000	-93.964615
6656.250000	-93.951477
6703.125000	-93.933342
6750.000000	-94.182663
6796.875000	-94.555168
6843.750000	-94.396637
6890.625000	-94.559959
6937.500000	-94.950233
6984.375000	-95.040718
7031.250000	-95.129150
7078.125000	-94.654739
7125.000000	-94.747932
7171.875000	-95.226532
7218.750000	-95.555862
7265.625000	-95.514359
7312.500000	-95.285675
7359.375000	-95.150108
7406.250000	-94.898941
7453.125000	-95.233475
7500.000000	-95.367554
7546.875000	-95.562645
7593.750000	-95.607048
7640.625000	-95.734032
7687.500000	-95.575699
7734.375000	-95.317368
7781.250000	-95.240593
7828.125000	-95.755417
7875.000000	-95.368469
7921.875000	-95.129326
7968.750000	-95.411346
8015.625000	-95.590965
8062.500000	-95.676880
8109.375000	-95.588737
8156.250000	-95.708115
8203.125000	-95.349579
8250.000000	-95.351410
8296.875000	-95.256317
8343.750000	-95.437866
8390.625000	-95.444672
8437.500000	-95.362602
8484.375000	-95.625031
8531.250000	-95.335152
8578.125000	-95.380943
8625.000000	-95.545685
8671.875000	-95.743652
8718.750000	-95.632736
8765.625000	-95.811798
8812.500000	-95.404495
8859.375000	-95.256721
8906.250000	-95.816368
8953.125000	-95.972702
9000.000000	-96.065079
9046.875000	-96.194328
9093.750000	-95.568451
9140.625000	-95.790230
9187.500000	-95.945595
9234.375000	-95.901520
9281.250000	-96.044884
9328.125000	-96.516312
9375.000000	-96.713272
9421.875000	-96.622597
9468.750000	-96.991058
9515.625000	-97.178757
9562.500000	-96.916451
9609.375000	-96.664452
9656.250000	-96.801689
9703.125000	-96.925789
9750.000000	-96.993271
9796.875000	-96.977928
9843.750000	-96.940125
9890.625000	-97.292023
9937.500000	-97.134903
9984.375000	-97.236534
10031.250000	-96.965012
10078.125000	-96.747147
10125.000000	-96.678253
10171.875000	-97.159851
10218.750000	-97.388855
10265.625000	-97.446548
10312.500000	-97.757423
10359.375000	-97.824020
10406.250000	-97.729279
10453.125000	-98.092430
10500.000000	-98.611870
10546.875000	-98.908936
10593.750000	-98.751427
10640.625000	-98.723465
10687.500000	-98.784988
10734.375000	-99.298523
10781.250000	-99.319427
10828.125000	-99.478294
10875.000000	-99.777954
10921.875000	-99.647888
10968.750000	-99.562782
11015.625000	-100.010788
11062.500000	-99.950073
11109.375000	-100.081612
11156.250000	-100.084335
11203.125000	-100.334396
11250.000000	-100.333252
11296.875000	-100.760918
11343.750000	-100.884270
11390.625000	-101.064072
11437.500000	-101.122147
11484.375000	-101.000900
11531.250000	-101.397789
11578.125000	-101.973129
11625.000000	-102.077065
11671.875000	-102.218269
11718.750000	-102.041611
11765.625000	-102.020859
11812.500000	-102.512016
11859.375000	-103.111885
11906.250000	-103.062286
11953.125000	-102.774071
12000.000000	-103.230820
12046.875000	-103.520164
12093.750000	-103.452293
12140.625000	-103.630264
12187.500000	-104.140350
12234.375000	-103.778587
12281.250000	-103.829865
12328.125000	-104.260521
12375.000000	-104.702728
12421.875000	-104.512032
12468.750000	-104.577461
12515.625000	-104.584038
12562.500000	-104.648575
12609.375000	-105.052650
12656.250000	-105.361847
12703.125000	-105.186783
12750.000000	-105.755623
12796.875000	-105.854256
12843.750000	-105.856750
12890.625000	-106.013084
12937.500000	-105.840195
12984.375000	-105.992714
13031.250000	-105.952690
13078.125000	-106.454216
13125.000000	-106.843529
13171.875000	-106.711678
13218.750000	-106.518913
13265.625000	-106.608658
13312.500000	-106.818939
13359.375000	-107.164101
13406.250000	-106.969772
13453.125000	-106.915642
13500.000000	-107.113068
13546.875000	-107.335953
13593.750000	-107.592377
13640.625000	-107.327049
13687.500000	-107.462967
13734.375000	-107.331734
13781.250000	-107.852928
13828.125000	-108.110718
13875.000000	-108.371773
13921.875000	-108.406662
13968.750000	-108.031494
14015.625000	-108.117973
14062.500000	-108.500488
14109.375000	-108.725311
14156.250000	-108.942039
14203.125000	-108.997566
14250.000000	-109.151497
14296.875000	-109.256027
14343.750000	-108.630058
14390.625000	-108.651283
14437.500000	-108.984138
14484.375000	-108.937828
14531.250000	-109.170036
14578.125000	-109.128723
14625.000000	-108.949242
14671.875000	-109.176834
14718.750000	-109.217201
14765.625000	-109.079597
14812.500000	-109.051247
14859.375000	-109.510323
14906.250000	-109.707726
14953.125000	-109.499634
15000.000000	-109.593132
15046.875000	-109.512466
15093.750000	-109.682014
15140.625000	-109.439125
15187.500000	-109.344078
15234.375000	-109.707329
15281.250000	-109.798172
15328.125000	-109.895798
15375.000000	-109.999924
15421.875000	-109.868805
15468.750000	-109.566582
15515.625000	-109.365501
15562.500000	-109.927734
15609.375000	-110.264893
15656.250000	-109.864799
15703.125000	-110.168648
15750.000000	-110.084991
15796.875000	-110.449921
15843.750000	-110.663605
15890.625000	-110.367126
15937.500000	-109.770790
15984.375000	-110.159866
16031.250000	-110.850746
16078.125000	-110.489975
16125.000000	-110.209671
16171.875000	-111.432495
16218.750000	-112.612190
16265.625000	-112.970146
16312.500000	-112.894737
16359.375000	-112.557022
16406.250000	-111.206261
16453.125000	-111.205650
16500.000000	-112.330444
16546.875000	-111.646950
16593.750000	-111.895416
16640.625000	-111.970078
16687.500000	-111.853798
16734.375000	-111.364777
16781.250000	-110.706985
16828.125000	-111.371132
16875.000000	-112.221603
16921.875000	-112.278175
16968.750000	-112.116074
17015.625000	-111.862732
17062.500000	-112.118690
17109.375000	-112.031998
17156.250000	-111.794312
17203.125000	-111.410210
17250.000000	-112.164772
17296.875000	-112.564461
17343.750000	-112.857651
17390.625000	-112.628433
17437.500000	-112.672508
17484.375000	-111.915192
17531.250000	-111.600075
17578.125000	-112.444519
17625.000000	-112.550926
17671.875000	-112.312347
17718.750000	-111.862877
17765.625000	-111.827675
17812.500000	-112.109116
17859.375000	-113.115692
17906.250000	-112.791977
17953.125000	-112.513695
18000.000000	-113.006737
18046.875000	-113.907112
18093.750000	-114.011383
18140.625000	-113.074951
18187.500000	-112.268173
18234.375000	-113.111954
18281.250000	-113.560509
18328.125000	-113.289948
18375.000000	-113.220940
18421.875000	-112.802353
18468.750000	-113.477821
18515.625000	-114.214790
18562.500000	-113.758247
18609.375000	-113.629913
18656.250000	-113.839951
18703.125000	-113.377708
18750.000000	-114.055573
18796.875000	-114.532951
18843.750000	-114.114281
18890.625000	-114.230782
18937.500000	-114.411850
18984.375000	-114.233337
19031.250000	-114.112465
19078.125000	-114.260338
19125.000000	-115.382477
19171.875000	-114.726822
19218.750000	-114.957153
19265.625000	-116.649155
19312.500000	-115.249702
19359.375000	-115.820641
19406.250000	-119.683022
19453.125000	-118.191162
19500.000000	-118.073906
19546.875000	-120.319016
19593.750000	-123.245895
19640.625000	-129.793808
19687.500000	-137.704361
19734.375000	-145.727188
19781.250000	-148.515671
19828.125000	-149.486221
19875.000000	-150.252380
19921.875000	-150.094299
19968.750000	-149.873413
20015.625000	-150.250412
20062.500000	-150.162949
20109.375000	-149.827560
20156.250000	-147.959320
20203.125000	-147.586716
20250.000000	-148.983185
20296.875000	-149.406860
20343.750000	-149.593796
20390.625000	-149.620834
20437.500000	-149.522552
20484.375000	-149.327972
20531.250000	-149.099060
20578.125000	-149.430984
20625.000000	-149.477554
20671.875000	-148.898483
20718.750000	-148.721420
20765.625000	-149.131760
20812.500000	-148.886749
20859.375000	-148.977692
20906.250000	-148.365341
20953.125000	-147.214249
21000.000000	-146.720123
21046.875000	-147.648987
21093.750000	-149.060425
21140.625000	-148.900330
21187.500000	-148.668060
21234.375000	-148.886322
21281.250000	-148.794632
21328.125000	-148.692413
21375.000000	-148.252106
21421.875000	-148.849838
21468.750000	-149.047104
21515.625000	-148.489029
21562.500000	-148.631592
21609.375000	-148.507645
21656.250000	-148.345703
21703.125000	-148.214828
21750.000000	-148.009155
21796.875000	-147.889053
21843.750000	-147.733215
21890.625000	-148.201721
21937.500000	-148.191010
21984.375000	-147.999741
22031.250000	-148.091751
22078.125000	-148.076416
22125.000000	-148.025635
22171.875000	-147.730942
22218.750000	-147.840591
22265.625000	-147.806427
22312.500000	-148.234146
22359.375000	-148.032104
22406.250000	-147.504028
22453.125000	-146.214859
22500.000000	-145.937744
22546.875000	-147.179886
22593.750000	-147.655090
22640.625000	-147.422928
22687.500000	-147.403610
22734.375000	-147.866394
22781.250000	-147.731644
22828.125000	-147.004745
22875.000000	-146.967560
22921.875000	-147.023148
22968.750000	-147.492188
23015.625000	-147.674698
23062.500000	-147.629684
23109.375000	-147.301605
23156.250000	-147.409286
23203.125000	-147.647339
23250.000000	-147.533432
23296.875000	-147.408371
23343.750000	-147.271957
23390.625000	-147.305832
23437.500000	-147.542770
23484.375000	-147.284348
23531.250000	-147.082474
23578.125000	-147.537018
23625.000000	-147.423538
23671.875000	-147.409698
23718.750000	-147.580978
23765.625000	-147.520081
23812.500000	-147.563477
23859.375000	-147.716766
23906.250000	-146.928955
23953.125000	-146.446182
