Frequency (Hz)	Level (dB)
46.875000	-36.043091
93.750000	-43.538486
140.625000	-52.072758
187.500000	-55.225689
234.375000	-56.216648
281.250000	-59.578766
328.125000	-60.186729
375.000000	-61.667175
421.875000	-61.126934
468.750000	-60.876225
515.625000	-65.670319
562.500000	-62.413197
609.375000	-60.299282
656.250000	-59.895847
703.125000	-62.122356
750.000000	-64.263550
796.875000	-68.441605
843.750000	-68.137321
890.625000	-65.928268
937.500000	-67.344482
984.375000	-68.224365
1031.250000	-69.068756
1078.125000	-68.516197
1125.000000	-69.027611
1171.875000	-71.367096
1218.750000	-71.851715
1265.625000	-72.628494
1312.500000	-72.407227
1359.375000	-72.868774
1406.250000	-72.767456
1453.125000	-72.276581
1500.000000	-72.921822
1546.875000	-73.284988
1593.750000	-73.490089
1640.625000	-73.862709
1687.500000	-74.113274
1734.375000	-74.420265
1781.250000	-74.896507
1828.125000	-74.842171
1875.000000	-74.709641
1921.875000	-74.688316
1968.750000	-74.854858
2015.625000	-75.208229
2062.500000	-75.193443
2109.375000	-75.188057
2156.250000	-75.319717
2203.125000	-75.659279
2250.000000	-75.513985
2296.875000	-75.393265
2343.750000	-75.222847
2390.625000	-75.243004
2437.500000	-75.400101
2484.375000	-75.193314
2531.250000	-75.117867
2578.125000	-74.641151
2625.000000	-75.110527
2671.875000	-75.250282
2718.750000	-74.299667
2765.625000	-73.219505
2812.500000	-74.023247
2859.375000	-74.101028
2906.250000	-74.790741
2953.125000	-73.938400
3000.000000	-70.976776
3046.875000	-70.492462
3093.750000	-72.392029
3140.625000	-75.193359
3187.500000	-74.770493
3234.375000	-73.900459
3281.250000	-74.032639
3328.125000	-75.340858
3375.000000	-74.952034
3421.875000	-74.888283
3468.750000	-75.131729
3515.625000	-74.742897
3562.500000	-75.646339
3609.375000	-75.745155
3656.250000	-74.152649
3703.125000	-73.786743
3750.000000	-74.644966
3796.875000	-75.605873
3843.750000	-75.830833
3890.625000	-75.435280
3937.500000	-75.554367
3984.375000	-76.058357
4031.250000	-76.139809
4078.125000	-75.869926
4125.000000	-76.417465
4171.875000	-76.365799
4218.750000	-76.198906
4265.625000	-76.139946
4312.500000	-75.751709
4359.375000	-75.829643
4406.250000	-75.601486
4453.125000	-75.696739
4500.000000	-76.129272
4546.875000	-76.068832
4593.750000	-76.502022
4640.625000	-76.829254
4687.500000	-76.690849
4734.375000	-76.709877
4781.250000	-76.589302
4828.125000	-76.558601
4875.000000	-76.314888
4921.875000	-76.874702
4968.750000	-76.414894
5015.625000	-76.482506
5062.500000	-76.573555
5109.375000	-76.441734
5156.250000	-76.935455
5203.125000	-77.091064
5250.000000	-77.199364
5296.875000	-77.136330
5343.750000	-77.012909
5390.625000	-77.467407
5437.500000	-77.135818
5484.375000	-77.521355
5531.250000	-77.662910
5578.125000	-77.502350
5625.000000	-77.708931
5671.875000	-77.872284
5718.750000	-77.892227
5765.625000	-77.562393
5812.500000	-77.836708
5859.375000	-78.009872
5906.250000	-77.554695
5953.125000	-77.839577
6000.000000	-77.605209
6046.875000	-77.622940
6093.750000	-77.873077
6140.625000	-77.599083
6187.500000	-77.586288
6234.375000	-77.965134
6281.250000	-78.354546
6328.125000	-78.405960
6375.000000	-78.937454
6421.875000	-78.503441
6468.750000	-77.927322
6515.625000	-78.536049
6562.500000	-78.887169
6609.375000	-78.766312
6656.250000	-78.723221
6703.125000	-78.495659
6750.000000	-78.997017
6796.875000	-79.018143
6843.750000	-79.070496
6890.625000	-79.315453
6937.500000	-79.321724
6984.375000	-79.840141
7031.250000	-79.884132
7078.125000	-80.062958
7125.000000	-79.962677
7171.875000	-79.896912
7218.750000	-80.202591
7265.625000	-80.327789
7312.500000	-80.136139
7359.375000	-80.175400
7406.250000	-80.519951
7453.125000	-80.495102
7500.000000	-80.774460
7546.875000	-80.344841
7593.750000	-80.183769
7640.625000	-80.416817
7687.500000	-80.976295
7734.375000	-80.634247
7781.250000	-80.545998
7828.125000	-81.054428
7875.000000	-81.012794
7921.875000	-80.567268
7968.750000	-80.582390
8015.625000	-80.787292
8062.500000	-80.383263
8109.375000	-80.135246
8156.250000	-80.595566
8203.125000	-81.084213
8250.000000	-81.418404
8296.875000	-81.230202
8343.750000	-81.219620
8390.625000	-81.013252
8437.500000	-80.940430
8484.375000	-81.200790
8531.250000	-81.685326
8578.125000	-81.034843
8625.000000	-80.577499
8671.875000	-80.895927
8718.750000	-81.022865
8765.625000	-80.610382
8812.500000	-80.455841
8859.375000	-80.630386
8906.250000	-80.542252
8953.125000	-80.675079
9000.000000	-80.528526
9046.875000	-81.034737
9093.750000	-80.575066
9140.625000	-80.532471
9187.500000	-80.857857
9234.375000	-80.748405
9281.250000	-80.885269
9328.125000	-81.093452
9375.000000	-80.907166
9421.875000	-80.741600
9468.750000	-81.237373
9515.625000	-81.075432
9562.500000	-81.118744
9609.375000	-81.461014
9656.250000	-81.212952
9703.125000	-80.892258
9750.000000	-80.979240
9796.875000	-80.756332
9843.750000	-81.024719
9890.625000	-80.984154
9937.500000	-81.053238
9984.375000	-81.046379
10031.250000	-81.642815
10078.125000	-81.573792
10125.000000	-81.457977
10171.875000	-81.276596
10218.750000	-81.391220
10265.625000	-81.787582
10312.500000	-81.387566
10359.375000	-81.700058
10406.250000	-81.579041
10453.125000	-81.689178
10500.000000	-81.733261
10546.875000	-81.945618
10593.750000	-81.744987
10640.625000	-82.289124
10687.500000	-82.470940
10734.375000	-82.809395
10781.250000	-82.896423
10828.125000	-82.942894
10875.000000	-83.281700
10921.875000	-83.053528
10968.750000	-83.017944
11015.625000	-83.192375
11062.500000	-83.439529
11109.375000	-83.551201
11156.250000	-83.281609
11203.125000	-83.407066
11250.000000	-83.730614
11296.875000	-83.753464
11343.750000	-84.079445
11390.625000	-84.807854
11437.500000	-84.571938
11484.375000	-84.000183
11531.250000	-84.526970
11578.125000	-85.012566
11625.000000	-84.813255
11671.875000	-84.406403
11718.750000	-84.589233
11765.625000	-84.932411
11812.500000	-85.207855
11859.375000	-85.481979
11906.250000	-85.777359
11953.125000	-85.549217
12000.000000	-86.127846
12046.875000	-86.122192
12093.750000	-86.276260
12140.625000	-86.680779
12187.500000	-86.417549
12234.375000	-86.701462
12281.250000	-87.236549
12328.125000	-86.833611
12375.000000	-86.142960
12421.875000	-86.852295
12468.750000	-86.662979
12515.625000	-86.723976
12562.500000	-87.322449
12609.375000	-87.165901
12656.250000	-87.384323
12703.125000	-87.470047
12750.000000	-87.853889
12796.875000	-88.113197
12843.750000	-87.915810
12890.625000	-87.815903
12937.500000	-88.204216
12984.375000	-88.765800
13031.250000	-88.805038
13078.125000	-88.707672
13125.000000	-89.118835
13171.875000	-88.945724
13218.750000	-88.885101
13265.625000	-88.532051
13312.500000	-89.160362
13359.375000	-89.560463
13406.250000	-89.679543
13453.125000	-89.992989
13500.000000	-89.596634
13546.875000	-89.583672
13593.750000	-90.102104
13640.625000	-90.445839
13687.500000	-90.366386
13734.375000	-90.241074
13781.250000	-90.243706
13828.125000	-90.812927
13875.000000	-90.923866
13921.875000	-90.881805
13968.750000	-90.701553
14015.625000	-91.404480
14062.500000	-90.916092
14109.375000	-90.968353
14156.250000	-91.519608
14203.125000	-92.263664
14250.000000	-91.737656
14296.875000	-91.494637
14343.750000	-92.208069
14390.625000	-92.306267
14437.500000	-92.238335
14484.375000	-92.542725
14531.250000	-92.517876
14578.125000	-92.602585
14625.000000	-92.434013
14671.875000	-92.444160
14718.750000	-92.691238
14765.625000	-92.878456
14812.500000	-92.566956
14859.375000	-93.422852
14906.250000	-93.890030
14953.125000	-93.337105
15000.000000	-93.215927
15046.875000	-94.000328
15093.750000	-94.321861
15140.625000	-94.535370
15187.500000	-94.656746
15234.375000	-94.502205
15281.250000	-94.908005
15328.125000	-94.615578
15375.000000	-94.085686
15421.875000	-94.824409
15468.750000	-94.913811
15515.625000	-95.006683
15562.500000	-95.399742
15609.375000	-95.248405
15656.250000	-95.328537
15703.125000	-95.088287
15750.000000	-95.533928
15796.875000	-95.537697
15843.750000	-95.710258
15890.625000	-96.279007
15937.500000	-96.602226
15984.375000	-96.166237
16031.250000	-95.935432
16078.125000	-96.053757
16125.000000	-96.445518
16171.875000	-95.919731
16218.750000	-95.692635
16265.625000	-95.775368
16312.500000	-96.520332
16359.375000	-96.854019
16406.250000	-96.753586
16453.125000	-96.279076
16500.000000	-96.049370
16546.875000	-95.750008
16593.750000	-96.498177
16640.625000	-96.237206
16687.500000	-96.773705
16734.375000	-97.361328
16781.250000	-98.362991
16828.125000	-98.173706
16875.000000	-97.402519
16921.875000	-97.929253
16968.750000	-98.531258
17015.625000	-98.087814
17062.500000	-98.458618
17109.375000	-98.824593
17156.250000	-98.015587
17203.125000	-97.803093
17250.000000	-97.967751
17296.875000	-98.281174
17343.750000	-98.344574
17390.625000	-98.597343
17437.500000	-99.146370
17484.375000	-99.130295
17531.250000	-99.470299
17578.125000	-99.650108
17625.000000	-99.845444
17671.875000	-100.538757
17718.750000	-100.512688
17765.625000	-99.842041
17812.500000	-100.428673
17859.375000	-100.979752
17906.250000	-100.586395
17953.125000	-100.134918
18000.000000	-101.568558
18046.875000	-100.938690
18093.750000	-100.478653
18140.625000	-101.257370
18187.500000	-102.469482
18234.375000	-101.431244
18281.250000	-101.301727
18328.125000	-101.784561
18375.000000	-101.553741
18421.875000	-102.087296
18468.750000	-103.964005
18515.625000	-102.839409
18562.500000	-101.931564
18609.375000	-102.550484
18656.250000	-103.809006
18703.125000	-103.920135
18750.000000	-104.090363
18796.875000	-103.799034
18843.750000	-103.331894
18890.625000	-104.250267
18937.500000	-105.240700
18984.375000	-105.108681
19031.250000	-105.194435
19078.125000	-105.390396
19125.000000	-106.497993
19171.875000	-107.766678
19218.750000	-108.757469
19265.625000	-108.126984
19312.500000	-105.896111
19359.375000	-107.199997
19406.250000	-109.234184
19453.125000	-109.230667
19500.000000	-110.293625
19546.875000	-111.638077
19593.750000	-112.748489
19640.625000	-117.489883
19687.500000	-128.512009
19734.375000	-138.363663
19781.250000	-143.581955
19828.125000	-147.149826
19875.000000	-148.944611
19921.875000	-149.197632
19968.750000	-149.462860
20015.625000	-149.930771
20062.500000	-149.837906
20109.375000	-149.810837
20156.250000	-149.402649
20203.125000	-149.020386
20250.000000	-148.909332
20296.875000	-148.923203
20343.750000	-149.409592
20390.625000	-149.483795
20437.500000	-149.526413
20484.375000	-149.450500
20531.250000	-149.234680
20578.125000	-149.294205
20625.000000	-149.225632
20671.875000	-148.828506
20718.750000	-148.735840
20765.625000	-149.219711
20812.500000	-149.479172
20859.375000	-149.202194
20906.250000	-148.286102
20953.125000	-145.060638
21000.000000	-143.950211
21046.875000	-145.999573
21093.750000	-148.538589
21140.625000	-148.905472
21187.500000	-148.675613
21234.375000	-148.869904
21281.250000	-149.087173
21328.125000	-149.113922
21375.000000	-148.709061
21421.875000	-148.380646
21468.750000	-148.648376
21515.625000	-148.402573
21562.500000	-148.164566
21609.375000	-148.265579
21656.250000	-148.112915
21703.125000	-148.052536
21750.000000	-147.856659
21796.875000	-147.724274
21843.750000	-147.728516
21890.625000	-147.980591
21937.500000	-147.829361
21984.375000	-148.144531
22031.250000	-148.000244
22078.125000	-147.924789
22125.000000	-147.590271
22171.875000	-147.665665
22218.750000	-147.933701
22265.625000	-147.585800
22312.500000	-148.144424
22359.375000	-148.146667
22406.250000	-147.099243
22453.125000	-143.877289
22500.000000	-143.748383
22546.875000	-146.665207
22593.750000	-147.523331
22640.625000	-147.448517
22687.500000	-147.484390
22734.375000	-148.106216
22781.250000	-147.886368
22828.125000	-147.774216
22875.000000	-147.577347
22921.875000	-147.426514
22968.750000	-147.372879
23015.625000	-147.392426
23062.500000	-147.546768
23109.375000	-147.220398
23156.250000	-147.263306
23203.125000	-147.583923
23250.000000	-147.663147
23296.875000	-147.451752
23343.750000	-147.530914
23390.625000	-147.747757
23437.500000	-147.686356
23484.375000	-146.952148
23531.250000	-146.878891
23578.125000	-147.532990
23625.000000	-147.233749
23671.875000	-147.384171
23718.750000	-147.778061
23765.625000	-147.321014
23812.500000	-147.390106
23859.375000	-147.511597
23906.250000	-146.534363
23953.125000	-144.902695
