Frequency (Hz)	Level (dB)
46.875000	-41.060787
93.750000	-46.824921
140.625000	-53.017899
187.500000	-59.267338
234.375000	-64.098343
281.250000	-66.377975
328.125000	-68.390785
375.000000	-69.813065
421.875000	-70.699509
468.750000	-71.232300
515.625000	-72.016754
562.500000	-72.815918
609.375000	-72.743355
656.250000	-72.782394
703.125000	-72.855728
750.000000	-73.344376
796.875000	-73.471436
843.750000	-74.343925
890.625000	-74.162636
937.500000	-74.198853
984.375000	-75.072693
1031.250000	-75.612549
1078.125000	-75.827057
1125.000000	-76.001839
1171.875000	-76.415924
1218.750000	-76.547958
1265.625000	-77.039787
1312.500000	-77.525879
1359.375000	-77.589302
1406.250000	-77.666656
1453.125000	-77.902107
1500.000000	-78.214371
1546.875000	-78.948738
1593.750000	-79.035309
1640.625000	-79.216553
1687.500000	-79.193138
1734.375000	-79.679695
1781.250000	-79.834755
1828.125000	-79.980171
1875.000000	-80.094147
1921.875000	-80.074791
1968.750000	-80.157013
2015.625000	-80.346931
2062.500000	-80.564766
2109.375000	-80.064026
2156.250000	-80.307167
2203.125000	-80.566101
2250.000000	-80.981720
2296.875000	-81.351616
2343.750000	-81.299568
2390.625000	-80.829781
2437.500000	-80.504395
2484.375000	-80.616776
2531.250000	-80.866386
2578.125000	-80.841873
2625.000000	-80.822716
2671.875000	-81.114021
2718.750000	-80.940804
2765.625000	-80.723679
2812.500000	-80.582413
2859.375000	-80.900673
2906.250000	-81.182625
2953.125000	-81.498199
3000.000000	-80.777046
3046.875000	-80.190041
3093.750000	-80.311340
3140.625000	-80.241844
3187.500000	-80.618256
3234.375000	-81.109718
3281.250000	-81.429230
3328.125000	-81.170593
3375.000000	-80.949142
3421.875000	-80.806328
3468.750000	-81.154861
3515.625000	-81.268829
3562.500000	-80.698952
3609.375000	-80.826363
3656.250000	-81.051987
3703.125000	-81.198402
3750.000000	-81.326218
3796.875000	-81.439011
3843.750000	-81.476570
3890.625000	-81.361595
3937.500000	-81.557869
3984.375000	-81.544228
4031.250000	-81.270432
4078.125000	-81.655060
4125.000000	-81.461098
4171.875000	-81.931892
4218.750000	-82.118690
4265.625000	-81.570137
4312.500000	-81.214874
4359.375000	-81.660622
4406.250000	-82.212639
4453.125000	-82.274963
4500.000000	-82.112595
4546.875000	-81.940964
4593.750000	-81.974335
4640.625000	-82.143623
4687.500000	-81.898857
4734.375000	-81.907715
4781.250000	-82.002350
4828.125000	-82.265945
4875.000000	-82.380913
4921.875000	-82.586266
4968.750000	-82.957260
5015.625000	-82.571594
5062.500000	-82.914955
5109.375000	-83.140129
5156.250000	-83.028076
5203.125000	-82.809647
5250.000000	-83.179260
5296.875000	-83.391060
5343.750000	-83.306824
5390.625000	-83.492287
5437.500000	-83.879349
5484.375000	-83.610680
5531.250000	-83.619728
5578.125000	-83.906921
5625.000000	-83.861984
5671.875000	-84.017151
5718.750000	-84.113411
5765.625000	-84.370857
5812.500000	-84.379745
5859.375000	-84.712151
5906.250000	-84.690483
5953.125000	-84.496490
6000.000000	-84.428078
6046.875000	-84.742653
6093.750000	-84.976128
6140.625000	-84.909065
6187.500000	-84.898506
6234.375000	-84.923363
6281.250000	-84.926308
6328.125000	-85.104149
6375.000000	-85.377647
6421.875000	-85.884804
6468.750000	-85.918930
6515.625000	-85.833679
6562.500000	-86.168777
6609.375000	-86.251076
6656.250000	-86.353546
6703.125000	-86.389915
6750.000000	-86.581955
6796.875000	-87.044685
6843.750000	-87.047432
6890.625000	-86.819603
6937.500000	-86.669327
6984.375000	-86.899803
7031.250000	-87.308105
7078.125000	-87.502563
7125.000000	-87.156250
7171.875000	-87.507439
7218.750000	-87.893997
7265.625000	-87.980667
7312.500000	-88.227242
7359.375000	-88.031891
7406.250000	-87.575005
7453.125000	-87.864410
7500.000000	-88.346191
7546.875000	-88.469872
7593.750000	-88.559097
7640.625000	-88.774895
7687.500000	-88.390526
7734.375000	-88.853020
7781.250000	-89.070328
7828.125000	-89.267242
7875.000000	-89.504105
7921.875000	-89.548019
7968.750000	-89.375381
8015.625000	-89.464981
8062.500000	-89.287247
8109.375000	-89.210678
8156.250000	-89.312706
8203.125000	-89.119400
8250.000000	-89.138939
8296.875000	-89.736786
8343.750000	-90.032738
8390.625000	-90.344193
8437.500000	-89.839821
8484.375000	-89.689407
8531.250000	-89.808426
8578.125000	-89.924965
8625.000000	-90.153282
8671.875000	-90.233025
8718.750000	-90.477798
8765.625000	-90.689522
8812.500000	-90.461037
8859.375000	-90.879700
8906.250000	-90.778412
8953.125000	-90.479561
9000.000000	-90.682518
9046.875000	-90.163284
9093.750000	-90.112595
9140.625000	-90.521507
9187.500000	-90.785439
9234.375000	-90.828972
9281.250000	-91.191978
9328.125000	-91.059807
9375.000000	-91.133232
9421.875000	-91.120605
9468.750000	-91.198494
9515.625000	-91.272522
9562.500000	-91.432564
9609.375000	-91.351082
9656.250000	-91.438759
9703.125000	-91.851349
9750.000000	-92.105186
9796.875000	-92.356071
9843.750000	-91.900406
9890.625000	-91.976440
9937.500000	-91.967476
9984.375000	-91.902344
10031.250000	-91.906815
10078.125000	-91.888191
10125.000000	-91.736694
10171.875000	-91.679535
10218.750000	-91.993271
10265.625000	-92.347626
10312.500000	-92.534042
10359.375000	-92.592026
10406.250000	-92.330765
10453.125000	-92.436043
10500.000000	-92.888489
10546.875000	-93.116066
10593.750000	-93.324753
10640.625000	-93.253883
10687.500000	-93.211952
10734.375000	-93.089455
10781.250000	-93.490837
10828.125000	-94.177979
10875.000000	-94.538025
10921.875000	-94.420029
10968.750000	-94.446877
11015.625000	-94.944298
11062.500000	-95.013756
11109.375000	-94.617264
11156.250000	-95.132507
11203.125000	-95.237434
11250.000000	-95.447914
11296.875000	-95.432961
11343.750000	-95.547707
11390.625000	-96.018936
11437.500000	-95.837502
11484.375000	-95.387962
11531.250000	-95.542099
11578.125000	-96.170677
11625.000000	-96.251556
11671.875000	-96.687477
11718.750000	-96.732635
11765.625000	-96.781303
11812.500000	-97.174438
11859.375000	-97.301941
11906.250000	-97.795609
11953.125000	-98.100777
12000.000000	-97.445526
12046.875000	-97.383987
12093.750000	-97.697823
12140.625000	-97.786659
12187.500000	-98.161140
12234.375000	-97.921394
12281.250000	-97.775375
12328.125000	-98.333328
12375.000000	-98.689713
12421.875000	-98.765900
12468.750000	-98.811325
12515.625000	-99.238647
12562.500000	-99.144577
12609.375000	-99.137566
12656.250000	-98.950310
12703.125000	-99.310249
12750.000000	-99.520218
12796.875000	-100.110588
12843.750000	-100.118164
12890.625000	-100.288261
12937.500000	-100.267960
12984.375000	-100.475632
13031.250000	-100.573219
13078.125000	-100.994835
13125.000000	-101.203796
13171.875000	-101.190552
13218.750000	-100.780037
13265.625000	-101.101875
13312.500000	-101.750053
13359.375000	-101.747192
13406.250000	-100.947289
13453.125000	-101.303238
13500.000000	-101.354050
13546.875000	-101.342911
13593.750000	-101.876701
13640.625000	-102.266983
13687.500000	-102.460335
13734.375000	-102.879639
13781.250000	-102.939720
13828.125000	-102.391403
13875.000000	-102.467766
13921.875000	-103.011162
13968.750000	-103.422371
14015.625000	-103.546631
14062.500000	-103.671921
14109.375000	-103.609688
14156.250000	-104.244293
14203.125000	-104.563126
14250.000000	-104.825424
14296.875000	-104.395729
14343.750000	-103.847305
14390.625000	-104.545029
14437.500000	-104.748741
14484.375000	-105.671120
14531.250000	-105.593712
14578.125000	-105.005890
14625.000000	-105.071022
14671.875000	-105.653908
14718.750000	-105.647751
14765.625000	-105.420883
14812.500000	-105.350105
14859.375000	-105.627380
14906.250000	-105.998169
14953.125000	-106.166336
15000.000000	-106.229576
15046.875000	-105.708549
15093.750000	-104.933281
15140.625000	-105.720055
15187.500000	-106.661423
15234.375000	-106.350792
15281.250000	-106.288910
15328.125000	-106.731743
15375.000000	-107.172569
15421.875000	-107.261360
15468.750000	-107.142738
15515.625000	-107.774277
15562.500000	-107.622581
15609.375000	-107.942932
15656.250000	-107.665543
15703.125000	-107.758461
15750.000000	-107.877335
15796.875000	-108.077217
15843.750000	-108.045418
15890.625000	-108.124008
15937.500000	-108.940254
15984.375000	-109.700478
16031.250000	-109.997093
16078.125000	-110.926781
16125.000000	-111.295067
16171.875000	-110.495659
16218.750000	-110.199814
16265.625000	-109.945450
16312.500000	-111.286674
16359.375000	-112.265259
16406.250000	-112.796738
16453.125000	-113.998993
16500.000000	-113.619301
16546.875000	-112.677956
16593.750000	-113.324272
16640.625000	-114.396095
16687.500000	-113.799599
16734.375000	-114.567024
16781.250000	-115.642120
16828.125000	-114.932678
16875.000000	-115.794243
16921.875000	-116.725838
16968.750000	-115.505974
17015.625000	-114.443146
17062.500000	-114.180298
17109.375000	-115.518700
17156.250000	-116.756195
17203.125000	-116.149742
17250.000000	-115.832954
17296.875000	-116.340836
17343.750000	-116.327621
17390.625000	-118.452080
17437.500000	-120.471909
17484.375000	-119.915215
17531.250000	-117.278000
17578.125000	-116.404633
17625.000000	-115.641876
17671.875000	-116.743401
17718.750000	-117.066277
17765.625000	-116.131813
17812.500000	-116.657585
17859.375000	-117.604988
17906.250000	-119.741547
17953.125000	-123.349518
18000.000000	-121.994789
18046.875000	-121.325737
18093.750000	-121.153900
18140.625000	-121.642441
18187.500000	-118.472313
18234.375000	-116.675049
18281.250000	-118.137901
18328.125000	-120.852028
18375.000000	-121.172081
18421.875000	-122.104233
18468.750000	-126.436577
18515.625000	-121.938591
18562.500000	-119.272362
18609.375000	-122.248459
18656.250000	-126.675781
18703.125000	-127.384926
18750.000000	-127.573143
18796.875000	-128.095627
18843.750000	-123.782822
18890.625000	-125.140129
18937.500000	-129.413742
18984.375000	-128.340881
19031.250000	-127.892830
19078.125000	-129.295212
19125.000000	-131.076096
19171.875000	-126.514259
19218.750000	-122.067490
19265.625000	-119.305237
19312.500000	-122.036644
19359.375000	-128.391083
19406.250000	-135.920990
19453.125000	-143.009033
19500.000000	-144.631058
19546.875000	-146.592499
19593.750000	-147.730148
19640.625000	-148.525665
19687.500000	-148.278351
19734.375000	-148.760986
19781.250000	-149.687042
19828.125000	-150.149872
19875.000000	-150.116821
19921.875000	-150.114853
19968.750000	-149.545135
20015.625000	-150.074463
20062.500000	-150.114456
20109.375000	-149.925690
20156.250000	-149.730408
20203.125000	-149.387192
20250.000000	-149.206650
20296.875000	-149.414474
20343.750000	-149.885269
20390.625000	-149.758652
20437.500000	-149.563980
20484.375000	-149.346268
20531.250000	-149.077713
20578.125000	-149.311783
20625.000000	-149.369507
20671.875000	-148.938812
20718.750000	-148.684937
20765.625000	-149.271805
20812.500000	-149.064209
20859.375000	-149.082657
20906.250000	-148.266968
20953.125000	-147.428665
21000.000000	-146.887878
21046.875000	-147.816849
21093.750000	-149.089355
21140.625000	-149.140076
21187.500000	-148.765152
21234.375000	-148.609512
21281.250000	-148.696777
21328.125000	-148.533569
21375.000000	-148.630219
21421.875000	-148.670975
21468.750000	-148.589645
21515.625000	-148.495651
21562.500000	-148.482407
21609.375000	-148.445358
21656.250000	-148.323639
21703.125000	-148.086624
21750.000000	-147.888504
21796.875000	-148.119614
21843.750000	-147.714417
21890.625000	-148.102203
21937.500000	-148.106186
21984.375000	-148.072617
22031.250000	-147.974274
22078.125000	-147.997147
22125.000000	-148.056839
22171.875000	-147.869690
22218.750000	-148.098694
22265.625000	-147.869156
22312.500000	-148.044403
22359.375000	-147.758026
22406.250000	-147.503922
22453.125000	-146.449921
22500.000000	-146.527908
22546.875000	-147.341232
22593.750000	-147.531219
22640.625000	-147.789856
22687.500000	-147.474258
22734.375000	-147.742874
22781.250000	-147.757233
22828.125000	-147.429733
22875.000000	-147.446259
22921.875000	-147.339523
22968.750000	-147.447174
23015.625000	-147.438446
23062.500000	-147.499496
23109.375000	-147.445267
23156.250000	-147.368500
23203.125000	-147.595535
23250.000000	-147.398804
23296.875000	-147.295486
23343.750000	-147.481491
23390.625000	-147.768066
23437.500000	-147.761047
23484.375000	-147.509766
23531.250000	-146.998108
23578.125000	-146.961807
23625.000000	-147.358627
23671.875000	-147.479141
23718.750000	-147.622025
23765.625000	-147.312683
23812.500000	-147.396149
23859.375000	-147.482620
23906.250000	-146.555954
23953.125000	-146.122574
