Frequency (Hz)	Level (dB)
46.875000	-25.817043
93.750000	-31.031467
140.625000	-37.755463
187.500000	-42.759747
234.375000	-46.012352
281.250000	-48.094353
328.125000	-50.285286
375.000000	-52.174973
421.875000	-53.741642
468.750000	-55.814865
515.625000	-57.450275
562.500000	-58.145206
609.375000	-59.532722
656.250000	-60.756226
703.125000	-61.690491
750.000000	-61.609150
796.875000	-62.121395
843.750000	-62.598167
890.625000	-62.983128
937.500000	-63.365601
984.375000	-63.536240
1031.250000	-63.694885
1078.125000	-64.425865
1125.000000	-64.860710
1171.875000	-64.775253
1218.750000	-65.319283
1265.625000	-65.512741
1312.500000	-65.422806
1359.375000	-65.594116
1406.250000	-65.922386
1453.125000	-65.980789
1500.000000	-65.993149
1546.875000	-66.291130
1593.750000	-66.913292
1640.625000	-66.594101
1687.500000	-66.629082
1734.375000	-67.126831
1781.250000	-67.345215
1828.125000	-67.456917
1875.000000	-67.693443
1921.875000	-67.861626
1968.750000	-67.992134
2015.625000	-68.040833
2062.500000	-68.156090
2109.375000	-68.391754
2156.250000	-68.357468
2203.125000	-68.578667
2250.000000	-68.938034
2296.875000	-68.583794
2343.750000	-68.297859
2390.625000	-68.569267
2437.500000	-68.373444
2484.375000	-68.404564
2531.250000	-68.747887
2578.125000	-68.544571
2625.000000	-69.004410
2671.875000	-69.253487
2718.750000	-69.324989
2765.625000	-69.018158
2812.500000	-69.032814
2859.375000	-69.295723
2906.250000	-69.291550
2953.125000	-69.345985
3000.000000	-69.505531
3046.875000	-69.487755
3093.750000	-69.677605
3140.625000	-69.656242
3187.500000	-70.486816
3234.375000	-70.738785
3281.250000	-71.154999
3328.125000	-70.828407
3375.000000	-70.348053
3421.875000	-70.248466
3468.750000	-70.697479
3515.625000	-70.650467
3562.500000	-71.150650
3609.375000	-71.015396
3656.250000	-70.968414
3703.125000	-70.970421
3750.000000	-71.171967
3796.875000	-71.376610
3843.750000	-71.098297
3890.625000	-71.113243
3937.500000	-71.168106
3984.375000	-71.274956
4031.250000	-71.648521
4078.125000	-71.661942
4125.000000	-71.919571
4171.875000	-71.656326
4218.750000	-71.760384
4265.625000	-71.875435
4312.500000	-71.795486
4359.375000	-71.970711
4406.250000	-72.312500
4453.125000	-72.293709
4500.000000	-72.727661
4546.875000	-72.557457
4593.750000	-72.130211
4640.625000	-72.732040
4687.500000	-72.915115
4734.375000	-72.805229
4781.250000	-72.404945
4828.125000	-72.271004
4875.000000	-72.819809
4921.875000	-73.232857
4968.750000	-73.673279
5015.625000	-73.380241
5062.500000	-73.289444
5109.375000	-73.188179
5156.250000	-73.292740
5203.125000	-73.431076
5250.000000	-73.598709
5296.875000	-73.226738
5343.750000	-73.788368
5390.625000	-74.393814
5437.500000	-74.252876
5484.375000	-74.052589
5531.250000	-74.175362
5578.125000	-74.542213
5625.000000	-74.730896
5671.875000	-74.940514
5718.750000	-74.679947
5765.625000	-74.956146
5812.500000	-75.330360
5859.375000	-75.811188
5906.250000	-75.923897
5953.125000	-75.888756
6000.000000	-75.818283
6046.875000	-76.051445
6093.750000	-76.564369
6140.625000	-76.409348
6187.500000	-76.689995
6234.375000	-76.553772
6281.250000	-76.939453
6328.125000	-76.279068
6375.000000	-76.617027
6421.875000	-77.073341
6468.750000	-76.778671
6515.625000	-76.882149
6562.500000	-76.925171
6609.375000	-77.350327
6656.250000	-77.617485
6703.125000	-77.480904
6750.000000	-77.380974
6796.875000	-77.946945
6843.750000	-77.964661
6890.625000	-77.910843
6937.500000	-78.185989
6984.375000	-77.934967
7031.250000	-77.850136
7078.125000	-78.271263
7125.000000	-78.770943
7171.875000	-78.918304
7218.750000	-78.619850
7265.625000	-78.920364
7312.500000	-79.140442
7359.375000	-79.080780
7406.250000	-79.121902
7453.125000	-79.759995
7500.000000	-79.612480
7546.875000	-79.426262
7593.750000	-79.970024
7640.625000	-79.986504
7687.500000	-79.915413
7734.375000	-79.799736
7781.250000	-79.500374
7828.125000	-79.506104
7875.000000	-79.635727
7921.875000	-79.955238
7968.750000	-79.925270
8015.625000	-80.263802
8062.500000	-80.363937
8109.375000	-80.046654
8156.250000	-80.653450
8203.125000	-80.539062
8250.000000	-80.354424
8296.875000	-80.328506
8343.750000	-80.938683
8390.625000	-80.658737
8437.500000	-81.134071
8484.375000	-81.422775
8531.250000	-80.678169
8578.125000	-80.285240
8625.000000	-80.715782
8671.875000	-81.170212
8718.750000	-81.317253
8765.625000	-81.592941
8812.500000	-81.267220
8859.375000	-81.296783
8906.250000	-81.395058
8953.125000	-81.287842
9000.000000	-81.450378
9046.875000	-81.820686
9093.750000	-82.065857
9140.625000	-81.528992
9187.500000	-81.203049
9234.375000	-81.634239
9281.250000	-82.144028
9328.125000	-82.210007
9375.000000	-82.382133
9421.875000	-82.310905
9468.750000	-82.642044
9515.625000	-82.812881
9562.500000	-83.291115
9609.375000	-82.951126
9656.250000	-82.852699
9703.125000	-82.638443
9750.000000	-82.197983
9796.875000	-82.540710
9843.750000	-82.625404
9890.625000	-82.763466
9937.500000	-82.192978
9984.375000	-82.088196
10031.250000	-83.140465
10078.125000	-83.334145
10125.000000	-83.417374
10171.875000	-83.399414
10218.750000	-83.814682
10265.625000	-83.609810
10312.500000	-83.820419
10359.375000	-84.231552
10406.250000	-83.660408
10453.125000	-83.721230
10500.000000	-83.650841
10546.875000	-84.254692
10593.750000	-84.820915
10640.625000	-84.853645
10687.500000	-84.907112
10734.375000	-84.999695
10781.250000	-85.392128
10828.125000	-85.591820
10875.000000	-85.278069
10921.875000	-85.414146
10968.750000	-85.631554
11015.625000	-85.837143
11062.500000	-85.823479
11109.375000	-86.025513
11156.250000	-86.295158
11203.125000	-86.404190
11250.000000	-86.533279
11296.875000	-86.387718
11343.750000	-86.276817
11390.625000	-87.101730
11437.500000	-87.078354
11484.375000	-87.316223
11531.250000	-87.212982
11578.125000	-87.753708
11625.000000	-88.022842
11671.875000	-88.072594
11718.750000	-88.495972
11765.625000	-87.856865
11812.500000	-88.161621
11859.375000	-88.769371
11906.250000	-88.880257
11953.125000	-88.800362
12000.000000	-88.622208
12046.875000	-88.924026
12093.750000	-89.215660
12140.625000	-89.426224
12187.500000	-89.711517
12234.375000	-89.637482
12281.250000	-89.596291
12328.125000	-89.874596
12375.000000	-90.251106
12421.875000	-90.423538
12468.750000	-89.871735
12515.625000	-90.188980
12562.500000	-90.422722
12609.375000	-90.558022
12656.250000	-90.804283
12703.125000	-91.005630
12750.000000	-90.500885
12796.875000	-90.902039
12843.750000	-91.233368
12890.625000	-91.584343
12937.500000	-91.656967
12984.375000	-91.831696
13031.250000	-92.062065
13078.125000	-92.185577
13125.000000	-91.889709
13171.875000	-91.984192
13218.750000	-92.058868
13265.625000	-92.235863
13312.500000	-92.841278
13359.375000	-92.944702
13406.250000	-92.804825
13453.125000	-92.682625
13500.000000	-92.910110
13546.875000	-93.575478
13593.750000	-93.510925
13640.625000	-93.700218
13687.500000	-94.116531
13734.375000	-94.337044
13781.250000	-94.410599
13828.125000	-94.349518
13875.000000	-94.139069
13921.875000	-94.483772
13968.750000	-94.700516
14015.625000	-94.577744
14062.500000	-95.517998
14109.375000	-95.449493
14156.250000	-95.913094
14203.125000	-96.329178
14250.000000	-96.383934
14296.875000	-96.478470
14343.750000	-96.256981
14390.625000	-96.048088
14437.500000	-95.889107
14484.375000	-95.895699
14531.250000	-96.508484
14578.125000	-96.321220
14625.000000	-96.538704
14671.875000	-96.836342
14718.750000	-97.133690
14765.625000	-97.368698
14812.500000	-97.306602
14859.375000	-97.363411
14906.250000	-97.287666
14953.125000	-97.297539
15000.000000	-97.776070
15046.875000	-97.603333
15093.750000	-98.000725
15140.625000	-98.392525
15187.500000	-98.247452
15234.375000	-98.660019
15281.250000	-98.745041
15328.125000	-99.059822
15375.000000	-99.197021
15421.875000	-98.802086
15468.750000	-98.824730
15515.625000	-99.405235
15562.500000	-99.559174
15609.375000	-99.160530
15656.250000	-99.346359
15703.125000	-99.858070
15750.000000	-99.966690
15796.875000	-99.701836
15843.750000	-99.887337
15890.625000	-100.073257
15937.500000	-100.505501
15984.375000	-102.660789
16031.250000	-105.895508
16078.125000	-108.164909
16125.000000	-107.819862
16171.875000	-106.112183
16218.750000	-104.602249
16265.625000	-103.705101
16312.500000	-104.533691
16359.375000	-105.536606
16406.250000	-106.189987
16453.125000	-106.761726
16500.000000	-107.707657
16546.875000	-108.220779
16593.750000	-108.868637
16640.625000	-107.613411
16687.500000	-109.165184
16734.375000	-109.693321
16781.250000	-109.836861
16828.125000	-111.791771
16875.000000	-110.586212
16921.875000	-111.280350
16968.750000	-112.655807
17015.625000	-108.866302
17062.500000	-109.815323
17109.375000	-111.469742
17156.250000	-112.156166
17203.125000	-115.708115
17250.000000	-115.359329
17296.875000	-114.807770
17343.750000	-114.969963
17390.625000	-115.138748
17437.500000	-113.088577
17484.375000	-114.168037
17531.250000	-115.256050
17578.125000	-113.117683
17625.000000	-110.938560
17671.875000	-111.745613
17718.750000	-111.842735
17765.625000	-113.517815
17812.500000	-116.952080
17859.375000	-119.281075
17906.250000	-117.954979
17953.125000	-117.512154
18000.000000	-118.458458
18046.875000	-119.511719
18093.750000	-117.104515
18140.625000	-116.577820
18187.500000	-120.409126
18234.375000	-122.037598
18281.250000	-122.014603
18328.125000	-122.411446
18375.000000	-122.405693
18421.875000	-120.584183
18468.750000	-119.698471
18515.625000	-118.435493
18562.500000	-115.633881
18609.375000	-118.225273
18656.250000	-124.196671
18703.125000	-118.141434
18750.000000	-119.153603
18796.875000	-122.653870
18843.750000	-129.459442
18890.625000	-137.269531
18937.500000	-141.190887
18984.375000	-143.170578
19031.250000	-142.726868
19078.125000	-143.188721
19125.000000	-144.911560
19171.875000	-147.739014
19218.750000	-147.352478
19265.625000	-140.278580
19312.500000	-137.025406
19359.375000	-139.022293
19406.250000	-138.108170
19453.125000	-134.086868
19500.000000	-133.852936
19546.875000	-133.865799
19593.750000	-133.961792
19640.625000	-134.591110
19687.500000	-135.210800
19734.375000	-135.986710
19781.250000	-137.738144
19828.125000	-140.135361
19875.000000	-143.345291
19921.875000	-148.374374
19968.750000	-144.059677
20015.625000	-136.209930
20062.500000	-131.684128
20109.375000	-129.296829
20156.250000	-128.539932
20203.125000	-129.219635
20250.000000	-130.501190
20296.875000	-130.838425
20343.750000	-131.252563
20390.625000	-133.026962
20437.500000	-136.338501
20484.375000	-140.854889
20531.250000	-144.700348
20578.125000	-147.287567
20625.000000	-147.783249
20671.875000	-148.463165
20718.750000	-148.249695
20765.625000	-148.282211
20812.500000	-148.722717
20859.375000	-147.965485
20906.250000	-141.841812
20953.125000	-136.589249
21000.000000	-135.924728
21046.875000	-138.673920
21093.750000	-145.561569
21140.625000	-148.533524
21187.500000	-148.340759
21234.375000	-148.524826
21281.250000	-148.872360
21328.125000	-148.724274
21375.000000	-148.281921
21421.875000	-148.336243
21468.750000	-148.314362
21515.625000	-148.288208
21562.500000	-148.342178
21609.375000	-148.398453
21656.250000	-148.166641
21703.125000	-148.039261
21750.000000	-147.835342
21796.875000	-147.895630
21843.750000	-147.949783
21890.625000	-147.978943
21937.500000	-148.025513
21984.375000	-147.897720
22031.250000	-147.858276
22078.125000	-148.052856
22125.000000	-147.909805
22171.875000	-147.735397
22218.750000	-147.723206
22265.625000	-147.442230
22312.500000	-146.725769
22359.375000	-144.430161
22406.250000	-142.037003
22453.125000	-136.572662
22500.000000	-136.535080
22546.875000	-141.900391
22593.750000	-144.802948
22640.625000	-145.932266
22687.500000	-146.821793
22734.375000	-147.649780
22781.250000	-147.642303
22828.125000	-147.404114
22875.000000	-147.433197
22921.875000	-147.263092
22968.750000	-147.190811
23015.625000	-147.252579
23062.500000	-147.294724
23109.375000	-147.468109
23156.250000	-147.746231
23203.125000	-147.452789
23250.000000	-147.388138
23296.875000	-147.335724
23343.750000	-147.056641
23390.625000	-147.563324
23437.500000	-147.675674
23484.375000	-147.130661
23531.250000	-147.086700
23578.125000	-147.285233
23625.000000	-147.051117
23671.875000	-147.371262
23718.750000	-147.875580
23765.625000	-147.372711
23812.500000	-146.819550
23859.375000	-146.023331
23906.250000	-139.744339
23953.125000	-136.981445
