Frequency (Hz)	Level (dB)
46.875000	-28.511173
93.750000	-35.852051
140.625000	-45.068836
187.500000	-51.495110
234.375000	-55.406052
281.250000	-58.485165
328.125000	-61.378113
375.000000	-63.290897
421.875000	-64.164284
468.750000	-65.055031
515.625000	-64.762894
562.500000	-65.183403
609.375000	-65.551315
656.250000	-66.195801
703.125000	-66.348442
750.000000	-66.381172
796.875000	-66.661407
843.750000	-66.994728
890.625000	-67.127815
937.500000	-67.207314
984.375000	-66.724968
1031.250000	-66.983467
1078.125000	-67.814621
1125.000000	-67.769928
1171.875000	-68.068726
1218.750000	-68.052925
1265.625000	-68.516403
1312.500000	-68.344223
1359.375000	-68.323006
1406.250000	-68.407928
1453.125000	-68.461853
1500.000000	-68.693245
1546.875000	-68.553711
1593.750000	-68.653809
1640.625000	-69.227242
1687.500000	-69.713852
1734.375000	-70.032959
1781.250000	-70.000069
1828.125000	-70.212708
1875.000000	-70.634964
1921.875000	-71.026505
1968.750000	-70.309143
2015.625000	-70.111649
2062.500000	-70.692879
2109.375000	-70.891510
2156.250000	-70.628082
2203.125000	-70.667473
2250.000000	-70.748718
2296.875000	-70.381310
2343.750000	-70.527550
2390.625000	-70.894852
2437.500000	-70.998672
2484.375000	-71.374741
2531.250000	-71.417969
2578.125000	-71.103828
2625.000000	-71.347351
2671.875000	-71.002800
2718.750000	-70.898994
2765.625000	-71.022522
2812.500000	-71.251633
2859.375000	-71.478279
2906.250000	-71.346359
2953.125000	-71.710014
3000.000000	-71.479477
3046.875000	-71.340057
3093.750000	-71.211105
3140.625000	-71.333801
3187.500000	-71.850304
3234.375000	-71.796150
3281.250000	-71.865547
3328.125000	-72.184113
3375.000000	-72.696365
3421.875000	-72.451424
3468.750000	-72.611038
3515.625000	-72.493141
3562.500000	-72.697556
3609.375000	-73.048157
3656.250000	-72.881462
3703.125000	-72.984657
3750.000000	-72.941071
3796.875000	-72.837090
3843.750000	-72.843834
3890.625000	-72.983223
3937.500000	-73.129776
3984.375000	-72.757423
4031.250000	-72.398216
4078.125000	-72.637421
4125.000000	-72.778801
4171.875000	-72.899887
4218.750000	-72.748802
4265.625000	-72.766258
4312.500000	-72.930275
4359.375000	-73.511177
4406.250000	-73.544807
4453.125000	-73.941940
4500.000000	-73.777840
4546.875000	-73.759964
4593.750000	-74.261887
4640.625000	-74.261368
4687.500000	-74.052162
4734.375000	-73.958023
4781.250000	-73.959724
4828.125000	-74.139153
4875.000000	-74.078491
4921.875000	-73.819527
4968.750000	-74.017090
5015.625000	-74.418221
5062.500000	-74.279510
5109.375000	-74.321938
5156.250000	-74.185516
5203.125000	-73.572861
5250.000000	-74.207458
5296.875000	-74.859322
5343.750000	-74.779228
5390.625000	-74.340775
5437.500000	-74.441246
5484.375000	-74.358727
5531.250000	-74.193642
5578.125000	-74.765732
5625.000000	-75.175964
5671.875000	-75.092361
5718.750000	-74.882454
5765.625000	-74.738754
5812.500000	-75.053307
5859.375000	-75.693176
5906.250000	-76.196365
5953.125000	-76.019951
6000.000000	-76.017860
6046.875000	-75.393738
6093.750000	-75.630692
6140.625000	-76.109245
6187.500000	-76.511574
6234.375000	-76.337578
6281.250000	-76.361572
6328.125000	-76.549088
6375.000000	-76.451637
6421.875000	-76.702950
6468.750000	-76.953079
6515.625000	-76.700462
6562.500000	-76.661270
6609.375000	-76.845192
6656.250000	-76.563019
6703.125000	-76.498978
6750.000000	-76.345360
6796.875000	-76.451424
6843.750000	-76.723946
6890.625000	-77.389137
6937.500000	-77.628578
6984.375000	-77.780022
7031.250000	-78.211411
7078.125000	-78.468651
7125.000000	-78.233101
7171.875000	-77.953880
7218.750000	-78.108284
7265.625000	-78.249603
7312.500000	-78.396278
7359.375000	-78.510635
7406.250000	-78.307968
7453.125000	-78.571381
7500.000000	-78.695381
7546.875000	-78.711212
7593.750000	-78.456398
7640.625000	-78.296486
7687.500000	-78.808838
7734.375000	-78.536545
7781.250000	-78.235443
7828.125000	-78.658585
7875.000000	-78.987595
7921.875000	-78.973412
7968.750000	-78.989998
8015.625000	-79.257576
8062.500000	-79.055328
8109.375000	-79.211403
8156.250000	-79.571045
8203.125000	-79.553917
8250.000000	-79.462219
8296.875000	-79.669731
8343.750000	-79.462082
8390.625000	-78.940910
8437.500000	-79.059212
8484.375000	-79.577728
8531.250000	-79.455597
8578.125000	-79.707848
8625.000000	-79.965080
8671.875000	-80.104691
8718.750000	-80.227264
8765.625000	-80.023888
8812.500000	-80.252861
8859.375000	-80.797813
8906.250000	-80.584137
8953.125000	-81.107803
9000.000000	-81.165237
9046.875000	-80.560005
9093.750000	-80.836960
9140.625000	-80.766998
9187.500000	-80.542183
9234.375000	-80.712654
9281.250000	-80.835571
9328.125000	-81.132286
9375.000000	-81.755821
9421.875000	-82.203056
9468.750000	-81.698944
9515.625000	-81.611816
9562.500000	-81.907738
9609.375000	-82.100609
9656.250000	-81.910469
9703.125000	-81.729477
9750.000000	-81.682014
9796.875000	-81.889664
9843.750000	-81.770317
9890.625000	-81.885635
9937.500000	-81.623085
9984.375000	-81.582672
10031.250000	-81.770195
10078.125000	-81.505264
10125.000000	-81.265358
10171.875000	-81.709419
10218.750000	-82.052773
10265.625000	-82.618942
10312.500000	-82.632866
10359.375000	-81.909813
10406.250000	-81.946800
10453.125000	-82.400352
10500.000000	-82.064529
10546.875000	-82.608665
10593.750000	-82.667725
10640.625000	-82.643196
10687.500000	-82.386749
10734.375000	-82.507072
10781.250000	-82.588104
10828.125000	-82.334969
10875.000000	-81.844528
10921.875000	-81.544426
10968.750000	-81.673492
11015.625000	-81.650414
11062.500000	-81.400764
11109.375000	-81.537773
11156.250000	-81.536621
11203.125000	-81.247093
11250.000000	-81.608742
11296.875000	-81.961128
11343.750000	-82.271515
11390.625000	-82.988495
11437.500000	-83.242332
11484.375000	-83.741531
11531.250000	-84.211639
11578.125000	-84.783554
11625.000000	-85.329803
11671.875000	-85.642418
11718.750000	-85.540482
11765.625000	-86.008041
11812.500000	-86.435181
11859.375000	-86.512321
11906.250000	-86.736229
11953.125000	-86.589592
12000.000000	-86.426697
12046.875000	-86.807106
12093.750000	-87.052261
12140.625000	-86.990967
12187.500000	-86.787010
12234.375000	-87.415810
12281.250000	-88.163963
12328.125000	-88.024361
12375.000000	-88.470184
12421.875000	-88.486015
12468.750000	-88.749146
12515.625000	-88.963402
12562.500000	-88.620499
12609.375000	-88.929611
12656.250000	-89.118629
12703.125000	-89.677475
12750.000000	-89.621170
12796.875000	-90.126350
12843.750000	-90.652031
12890.625000	-90.491653
12937.500000	-89.979736
12984.375000	-89.878632
13031.250000	-90.347900
13078.125000	-89.981308
13125.000000	-89.476509
13171.875000	-89.507126
13218.750000	-89.760048
13265.625000	-89.287277
13312.500000	-88.459694
13359.375000	-87.419533
13406.250000	-86.707222
13453.125000	-86.674210
13500.000000	-86.949928
13546.875000	-87.069542
13593.750000	-86.826233
13640.625000	-86.323616
13687.500000	-86.077782
13734.375000	-85.875595
13781.250000	-86.091576
13828.125000	-86.674530
13875.000000	-86.796822
13921.875000	-86.786964
13968.750000	-86.911926
14015.625000	-87.272583
14062.500000	-87.902969
14109.375000	-88.322632
14156.250000	-88.405899
14203.125000	-88.090401
14250.000000	-87.950584
14296.875000	-88.123039
14343.750000	-88.101089
14390.625000	-88.224586
14437.500000	-88.464600
14484.375000	-88.419159
14531.250000	-88.612854
14578.125000	-89.027405
14625.000000	-89.374168
14671.875000	-89.421333
14718.750000	-89.234344
14765.625000	-89.170456
14812.500000	-89.376190
14859.375000	-89.789757
14906.250000	-90.409218
14953.125000	-91.481346
15000.000000	-92.472557
15046.875000	-92.981987
15093.750000	-93.016510
15140.625000	-92.771973
15187.500000	-92.592255
15234.375000	-92.583176
15281.250000	-93.032913
15328.125000	-93.518990
15375.000000	-93.900726
15421.875000	-93.838692
15468.750000	-94.102005
15515.625000	-94.706390
15562.500000	-95.482819
15609.375000	-96.395096
15656.250000	-97.177544
15703.125000	-97.766991
15750.000000	-98.445175
15796.875000	-98.845955
15843.750000	-99.501244
15890.625000	-99.438728
15937.500000	-98.502426
15984.375000	-98.489830
16031.250000	-99.030167
16078.125000	-97.376549
16125.000000	-95.125702
16171.875000	-93.601967
16218.750000	-92.703392
16265.625000	-92.084557
16312.500000	-91.386375
16359.375000	-90.555481
16406.250000	-89.783607
16453.125000	-89.040672
16500.000000	-88.350189
16546.875000	-87.986076
16593.750000	-87.987679
16640.625000	-87.950287
16687.500000	-87.768135
16734.375000	-87.785202
16781.250000	-87.919472
16828.125000	-87.916031
16875.000000	-87.789429
16921.875000	-87.725609
16968.750000	-87.777443
17015.625000	-87.977760
17062.500000	-88.092377
17109.375000	-87.866554
17156.250000	-87.429588
17203.125000	-87.229424
17250.000000	-87.380066
17296.875000	-87.554405
17343.750000	-87.572571
17390.625000	-87.763229
17437.500000	-88.362038
17484.375000	-88.849060
17531.250000	-88.729446
17578.125000	-88.514725
17625.000000	-88.644073
17671.875000	-88.834190
17718.750000	-88.815208
17765.625000	-88.744049
17812.500000	-88.652786
17859.375000	-88.600487
17906.250000	-88.769524
17953.125000	-88.986237
18000.000000	-89.103638
18046.875000	-89.345184
18093.750000	-89.692513
18140.625000	-90.012367
18187.500000	-90.352867
18234.375000	-90.769951
18281.250000	-91.141960
18328.125000	-91.688103
18375.000000	-92.865677
18421.875000	-94.362297
18468.750000	-95.486435
18515.625000	-96.580185
18562.500000	-98.044357
18609.375000	-99.252174
18656.250000	-99.948898
18703.125000	-100.786476
18750.000000	-101.922737
18796.875000	-103.425148
18843.750000	-105.413979
18890.625000	-107.865585
18937.500000	-108.983559
18984.375000	-107.747902
19031.250000	-105.562035
19078.125000	-104.481712
19125.000000	-104.833992
19171.875000	-106.719193
19218.750000	-110.676720
19265.625000	-115.951134
19312.500000	-116.820404
19359.375000	-114.460129
19406.250000	-113.125633
19453.125000	-112.980705
19500.000000	-115.464706
19546.875000	-120.172432
19593.750000	-120.166641
19640.625000	-120.408623
19687.500000	-122.321381
19734.375000	-123.923958
19781.250000	-127.574875
19828.125000	-128.715561
19875.000000	-132.325882
19921.875000	-135.855667
19968.750000	-138.581085
20015.625000	-143.709763
20062.500000	-145.862778
20109.375000	-146.927032
20156.250000	-143.904297
20203.125000	-141.813080
20250.000000	-140.888397
20296.875000	-141.597900
20343.750000	-143.646774
20390.625000	-146.062912
20437.500000	-147.773193
20484.375000	-148.928253
20531.250000	-149.117645
20578.125000	-149.396561
20625.000000	-149.270493
20671.875000	-148.962234
20718.750000	-148.801407
20765.625000	-149.266434
20812.500000	-149.263580
20859.375000	-148.891785
20906.250000	-145.020676
20953.125000	-139.093201
21000.000000	-137.759445
21046.875000	-140.467056
21093.750000	-146.835663
21140.625000	-148.945282
21187.500000	-148.738007
21234.375000	-148.594116
21281.250000	-148.907089
21328.125000	-148.825882
21375.000000	-148.438065
21421.875000	-148.322388
21468.750000	-148.068497
21515.625000	-148.427628
21562.500000	-148.607437
21609.375000	-148.449158
21656.250000	-148.078064
21703.125000	-148.184982
21750.000000	-147.990143
21796.875000	-147.991455
21843.750000	-147.965652
21890.625000	-148.250961
21937.500000	-148.055710
21984.375000	-147.914429
22031.250000	-148.012115
22078.125000	-148.217072
22125.000000	-148.304077
22171.875000	-147.822144
22218.750000	-147.670212
22265.625000	-147.647064
22312.500000	-147.644714
22359.375000	-147.126434
22406.250000	-145.105103
22453.125000	-138.442001
22500.000000	-138.128372
22546.875000	-143.484589
22593.750000	-146.881485
22640.625000	-147.132721
22687.500000	-147.041763
22734.375000	-147.462662
22781.250000	-147.506531
22828.125000	-147.373779
22875.000000	-147.255585
22921.875000	-147.309250
22968.750000	-147.439667
23015.625000	-147.607498
23062.500000	-147.775665
23109.375000	-147.572235
23156.250000	-147.683075
23203.125000	-147.524490
23250.000000	-147.294724
23296.875000	-147.361465
23343.750000	-147.150192
23390.625000	-147.450470
23437.500000	-147.572571
23484.375000	-147.307144
23531.250000	-147.230286
23578.125000	-147.369003
23625.000000	-147.205002
23671.875000	-147.249039
23718.750000	-147.688705
23765.625000	-147.613098
23812.500000	-147.266251
23859.375000	-147.001846
23906.250000	-143.377380
23953.125000	-139.757492
